File: XRD/hydromagnesite.xy
'Id: "" Comment: "" Operator: "Lab Manager" Anode: "Cu" Scantype: "Coupled TwoTheta/Theta" TimePerStep: "192"
5.0000 6.823
5.0481 6.828
5.0962 6.844
5.1443 6.000
5.1923 6.146
5.2404 6.130
5.2885 6.281
5.3366 5.734
5.3847 6.073
5.4328 6.026
5.4808 5.677
5.5289 5.771
5.5770 5.635
5.6251 6.000
5.6732 5.896
5.7213 5.807
5.7694 5.568
5.8174 5.370
5.8655 5.188
5.9136 5.552
5.9617 5.323
6.0098 5.495
6.0579 4.891
6.1060 5.083
6.1540 5.104
6.2021 5.089
6.2502 5.250
6.2983 5.557
6.3464 5.083
6.3945 4.703
6.4425 4.839
6.4906 4.630
6.5387 4.667
6.5868 4.771
6.6349 4.583
6.6830 4.276
6.7311 4.198
6.7791 4.302
6.8272 4.458
6.8753 4.349
6.9234 4.245
6.9715 4.089
7.0196 4.234
7.0677 4.172
7.1157 4.036
7.1638 3.938
7.2119 3.698
7.2600 3.620
7.3081 4.078
7.3562 3.688
7.4042 3.719
7.4523 3.630
7.5004 3.583
7.5485 3.609
7.5966 3.760
7.6447 3.406
7.6928 3.646
7.7408 3.286
7.7889 3.307
7.8370 3.297
7.8851 3.380
7.9332 3.276
7.9813 3.198
8.0294 3.401
8.0774 3.260
8.1255 3.099
8.1736 3.047
8.2217 3.000
8.2698 2.932
8.3179 2.786
8.3659 2.911
8.4140 2.646
8.4621 3.016
8.5102 2.911
8.5583 2.948
8.6064 2.672
8.6545 2.807
8.7025 2.818
8.7506 2.974
8.7987 2.786
8.8468 3.005
8.8949 2.917
8.9430 2.807
8.9911 2.885
9.0391 2.880
9.0872 2.927
9.1353 3.063
9.1834 3.474
9.2315 3.807
9.2796 4.620
9.3276 5.208
9.3757 6.807
9.4238 8.526
9.4719 10.443
9.5200 11.917
9.5681 13.865
9.6162 13.708
9.6642 9.521
9.7123 6.438
9.7604 4.693
9.8085 3.589
9.8566 3.130
9.9047 2.766
9.9527 2.474
10.0008 2.224
10.0489 2.156
10.0970 2.115
10.1451 2.115
10.1932 1.870
10.2413 1.729
10.2893 1.833
10.3374 2.052
10.3855 1.760
10.4336 1.635
10.4817 1.734
10.5298 1.672
10.5779 1.651
10.6259 1.729
10.6740 1.630
10.7221 1.563
10.7702 1.615
10.8183 1.750
10.8664 1.594
10.9144 1.448
10.9625 1.578
11.0106 1.359
11.0587 1.542
11.1068 1.479
11.1549 1.594
11.2030 1.531
11.2510 1.521
11.2991 1.458
11.3472 1.484
11.3953 1.484
11.4434 1.464
11.4915 1.427
11.5396 1.474
11.5876 1.448
11.6357 1.266
11.6838 1.417
11.7319 1.266
11.7800 1.313
11.8281 1.177
11.8761 1.339
11.9242 1.427
11.9723 1.313
12.0204 1.375
12.0685 1.370
12.1166 1.417
12.1647 1.297
12.2127 1.255
12.2608 1.271
12.3089 1.177
12.3570 1.328
12.4051 1.255
12.4532 1.255
12.5013 1.313
12.5493 1.302
12.5974 1.286
12.6455 1.115
12.6936 1.354
12.7417 1.302
12.7898 1.135
12.8378 1.167
12.8859 1.073
12.9340 1.240
12.9821 1.411
13.0302 1.151
13.0783 1.276
13.1264 1.307
13.1744 1.328
13.2225 1.495
13.2706 1.438
13.3187 1.453
13.3668 1.729
13.4149 1.922
13.4630 1.891
13.5110 2.255
13.5591 2.672
13.6072 3.177
13.6553 4.427
13.7034 5.911
13.7515 7.781
13.7995 8.724
13.8476 5.453
13.8957 4.094
13.9438 2.938
13.9919 2.422
14.0400 2.146
14.0881 1.781
14.1361 1.661
14.1842 1.458
14.2323 1.469
14.2804 1.536
14.3285 1.365
14.3766 1.458
14.4246 1.411
14.4727 1.286
14.5208 1.385
14.5689 1.375
14.6170 1.286
14.6651 1.344
14.7132 1.406
14.7612 1.563
14.8093 1.552
14.8574 1.750
14.9055 2.146
14.9536 2.479
15.0017 3.073
15.0498 4.354
15.0978 6.318
15.1459 9.552
15.1940 14.802
15.2421 18.010
15.2902 13.531
15.3383 7.333
15.3863 4.734
15.4344 3.365
15.4825 2.672
15.5306 1.953
15.5787 1.818
15.6268 1.656
15.6749 1.557
15.7229 1.385
15.7710 1.302
15.8191 1.260
15.8672 1.349
15.9153 1.297
15.9634 1.099
16.0115 1.005
16.0595 1.000
16.1076 1.052
16.1557 1.177
16.2038 1.068
16.2519 0.979
16.3000 1.068
16.3480 1.016
16.3961 0.917
16.4442 1.042
16.4923 1.010
16.5404 0.932
16.5885 1.042
16.6366 0.911
16.6846 0.906
16.7327 0.990
16.7808 0.844
16.8289 0.880
16.8770 1.042
16.9251 0.943
16.9732 0.839
17.0212 0.875
17.0693 0.932
17.1174 1.026
17.1655 0.964
17.2136 0.807
17.2617 0.828
17.3097 0.797
17.3578 0.880
17.4059 0.891
17.4540 0.854
17.5021 0.745
17.5502 0.839
17.5983 0.760
17.6463 1.010
17.6944 0.854
17.7425 0.906
17.7906 0.792
17.8387 0.745
17.8868 0.740
17.9348 0.844
17.9829 0.766
18.0310 0.719
18.0791 0.839
18.1272 0.854
18.1753 0.667
18.2234 0.760
18.2714 0.901
18.3195 0.786
18.3676 0.734
18.4157 0.901
18.4638 0.708
18.5119 0.823
18.5600 0.849
18.6080 0.906
18.6561 0.891
18.7042 0.760
18.7523 0.870
18.8004 0.911
18.8485 0.849
18.8965 0.880
18.9446 0.964
18.9927 1.135
19.0408 0.953
19.0889 1.047
19.1370 1.219
19.1851 1.417
19.2331 1.760
19.2812 1.922
19.3293 1.844
19.3774 1.359
19.4255 1.141
19.4736 1.083
19.5217 0.948
19.5697 0.979
19.6178 1.057
19.6659 1.161
19.7140 1.526
19.7621 2.104
19.8102 2.484
19.8582 2.089
19.9063 1.865
19.9544 1.391
20.0025 1.120
20.0506 1.057
20.0987 0.938
20.1468 0.870
20.1948 0.854
20.2429 0.849
20.2910 0.766
20.3391 0.745
20.3872 0.740
20.4353 0.708
20.4834 0.802
20.5314 0.750
20.5795 0.760
20.6276 0.750
20.6757 0.776
20.7238 0.745
20.7719 0.870
20.8199 0.896
20.8680 1.031
20.9161 1.021
20.9642 1.104
21.0123 1.698
21.0604 2.130
21.1085 3.422
21.1565 5.240
21.2046 5.281
21.2527 3.536
21.3008 1.901
21.3489 1.406
21.3970 1.391
21.4451 1.224
21.4931 1.417
21.5412 1.323
21.5893 1.630
21.6374 2.125
21.6855 2.333
21.7336 2.281
21.7816 1.938
21.8297 1.526
21.8778 1.328
21.9259 1.385
21.9740 1.589
22.0221 1.693
22.0702 1.656
22.1182 1.484
22.1663 1.047
22.2144 0.901
22.2625 0.911
22.3106 0.760
22.3587 0.698
22.4067 0.708
22.4548 0.823
22.5029 0.776
22.5510 0.703
22.5991 0.813
22.6472 0.802
22.6953 0.682
22.7433 0.604
22.7914 0.635
22.8395 0.677
22.8876 0.807
22.9357 0.938
22.9838 0.745
23.0319 1.047
23.0799 0.932
23.1280 0.995
23.1761 1.318
23.2242 1.411
23.2723 1.729
23.3204 2.161
23.3684 1.740
23.4165 1.406
23.4646 1.078
23.5127 0.865
23.5608 0.859
23.6089 0.786
23.6570 0.771
23.7050 0.688
23.7531 0.604
23.8012 0.656
23.8493 0.604
23.8974 0.745
23.9455 0.667
23.9936 0.651
24.0416 0.547
24.0897 0.594
24.1378 0.615
24.1859 0.521
24.2340 0.526
24.2821 0.563
24.3301 0.604
24.3782 0.547
24.4263 0.573
24.4744 0.703
24.5225 0.635
24.5706 0.583
24.6187 0.604
24.6667 0.536
24.7148 0.490
24.7629 0.625
24.8110 0.620
24.8591 0.646
24.9072 0.667
24.9553 0.583
25.0033 0.740
25.0514 0.688
25.0995 0.766
25.1476 0.760
25.1957 0.875
25.2438 1.068
25.2918 1.396
25.3399 1.760
25.3880 2.094
25.4361 1.911
25.4842 1.583
25.5323 1.047
25.5804 0.833
25.6284 0.786
25.6765 0.677
25.7246 0.667
25.7727 0.781
25.8208 0.682
25.8689 0.682
25.9170 0.672
25.9650 0.672
26.0131 0.682
26.0612 0.755
26.1093 0.896
26.1574 1.328
26.2055 1.505
26.2535 1.047
26.3016 0.849
26.3497 0.870
26.3978 0.870
26.4459 0.807
26.4940 1.010
26.5421 1.229
26.5901 1.443
26.6382 1.807
26.6863 1.932
26.7344 2.411
26.7825 3.365
26.8306 3.875
26.8786 3.771
26.9267 2.755
26.9748 2.214
27.0229 1.615
27.0710 1.443
27.1191 1.344
27.1672 1.432
27.2152 1.755
27.2633 1.349
27.3114 1.104
27.3595 0.995
27.4076 1.057
27.4557 1.078
27.5038 1.214
27.5518 1.099
27.5999 1.307
27.6480 1.604
27.6961 1.943
27.7442 2.599
27.7923 2.964
27.8403 2.453
27.8884 2.151
27.9365 1.698
27.9846 1.823
28.0327 1.703
28.0808 1.917
28.1289 2.073
28.1769 2.432
28.2250 3.313
28.2731 3.630
28.3212 3.714
28.3693 2.896
28.4174 2.370
28.4655 1.802
28.5135 1.823
28.5616 1.698
28.6097 2.010
28.6578 2.109
28.7059 2.328
28.7540 2.568
28.8020 2.453
28.8501 2.495
28.8982 2.182
28.9463 1.740
28.9944 1.688
29.0425 1.568
29.0906 1.427
29.1386 1.615
29.1867 1.552
29.2348 1.167
29.2829 1.188
29.3310 1.177
29.3791 1.266
29.4272 1.182
29.4752 1.068
29.5233 1.042
29.5714 0.885
29.6195 0.760
29.6676 0.891
29.7157 0.870
29.7637 0.891
29.8118 0.854
29.8599 0.833
29.9080 0.974
29.9561 0.896
30.0042 0.875
30.0523 0.938
30.1003 1.146
30.1484 1.026
30.1965 1.109
30.2446 1.115
30.2927 1.516
30.3408 1.635
30.3889 1.870
30.4369 2.219
30.4850 2.927
30.5331 3.641
30.5812 4.740
30.6293 5.776
30.6774 7.786
30.7254 10.432
30.7735 12.323
30.8216 11.500
30.8697 9.193
30.9178 6.344
30.9659 4.422
31.0140 3.156
31.0620 2.609
31.1101 2.005
31.1582 1.776
31.2063 1.547
31.2544 1.479
31.3025 1.255
31.3505 1.260
31.3986 1.458
31.4467 1.583
31.4948 1.479
31.5429 1.276
31.5910 1.292
31.6391 1.047
31.6871 1.042
31.7352 0.917
31.7833 0.922
31.8314 0.844
31.8795 0.760
31.9276 0.813
31.9757 0.766
32.0237 0.849
32.0718 1.083
32.1199 1.073
32.1680 1.396
32.2161 1.292
32.2642 1.151
32.3122 1.125
32.3603 0.927
32.4084 0.984
32.4565 1.010
32.5046 1.182
32.5527 1.401
32.6008 2.901
32.6488 2.224
32.6969 2.005
32.7450 1.344
32.7931 1.099
32.8412 1.010
32.8893 1.156
32.9374 1.219
32.9854 1.490
33.0335 1.828
33.0816 2.260
33.1297 2.964
33.1778 3.354
33.2259 3.990
33.2739 4.125
33.3220 3.396
33.3701 2.859
33.4182 1.969
33.4663 1.474
33.5144 1.411
33.5625 1.026
33.6105 0.990
33.6586 0.839
33.7067 0.781
33.7548 0.844
33.8029 0.818
33.8510 0.885
33.8991 0.807
33.9471 1.094
33.9952 1.010
34.0433 0.885
34.0914 0.745
34.1395 0.755
34.1876 0.667
34.2356 0.688
34.2837 0.578
34.3318 0.536
34.3799 0.635
34.4280 0.536
34.4761 0.646
34.5242 0.682
34.5722 0.604
34.6203 0.688
34.6684 0.661
34.7165 0.714
34.7646 0.651
34.8127 0.875
34.8607 0.839
34.9088 0.885
34.9569 0.974
35.0050 1.073
35.0531 1.203
35.1012 1.203
35.1493 1.193
35.1973 1.245
35.2454 1.396
35.2935 1.583
35.3416 1.526
35.3897 1.500
35.4378 1.719
35.4859 1.740
35.5339 1.609
35.5820 1.766
35.6301 1.688
35.6782 1.760
35.7263 2.302
35.7744 2.766
35.8224 3.547
35.8705 3.073
35.9186 2.797
35.9667 2.354
36.0148 1.979
36.0629 2.047
36.1110 2.260
36.1590 2.271
36.2071 2.172
36.2552 2.526
36.3033 2.177
36.3514 1.995
36.3995 1.651
36.4476 1.474
36.4956 1.255
36.5437 1.073
36.5918 0.859
36.6399 0.958
36.6880 0.953
36.7361 1.104
36.7841 1.026
36.8322 0.938
36.8803 0.974
36.9284 0.849
36.9765 0.839
37.0246 1.026
37.0727 0.917
37.1207 1.068
37.1688 1.255
37.2169 1.260
37.2650 1.297
37.3131 1.167
37.3612 0.938
37.4093 0.880
37.4573 0.750
37.5054 0.771
37.5535 0.901
37.6016 0.813
37.6497 0.823
37.6978 0.927
37.7458 0.917
37.7939 0.901
37.8420 0.948
37.8901 0.854
37.9382 0.844
37.9863 0.964
38.0344 0.833
38.0824 0.969
38.1305 0.979
38.1786 1.266
38.2267 1.417
38.2748 1.693
38.3229 1.510
38.3710 1.464
38.4190 1.422
38.4671 1.130
38.5152 1.052
38.5633 0.854
38.6114 0.880
38.6595 0.943
38.7075 0.964
38.7556 1.234
38.8037 1.255
38.8518 1.318
38.8999 1.766
38.9480 1.995
38.9961 2.484
39.0441 2.911
39.0922 3.620
39.1403 3.818
39.1884 4.120
39.2365 3.292
39.2846 2.667
39.3326 2.214
39.3807 1.557
39.4288 1.156
39.4769 1.036
39.5250 0.984
39.5731 0.813
39.6212 0.839
39.6692 0.729
39.7173 0.635
39.7654 0.667
39.8135 0.740
39.8616 0.750
39.9097 0.745
39.9578 0.599
40.0058 0.698
40.0539 0.755
40.1020 0.594
40.1501 0.760
40.1982 0.870
40.2463 1.016
40.2943 1.000
40.3424 1.156
40.3905 1.000
40.4386 1.120
40.4867 1.161
40.5348 1.130
40.5829 1.484
40.6309 1.417
40.6790 1.646
40.7271 2.089
40.7752 2.589
40.8233 2.943
40.8714 2.818
40.9195 2.547
40.9675 2.302
41.0156 2.016
41.0637 1.859
41.1118 1.839
41.1599 2.109
41.2080 2.349
41.2560 2.453
41.3041 2.427
41.3522 2.266
41.4003 2.240
41.4484 2.151
41.4965 2.135
41.5446 2.318
41.5926 2.401
41.6407 2.677
41.6888 2.990
41.7369 3.615
41.7850 4.245
41.8331 4.151
41.8812 4.448
41.9292 4.016
41.9773 3.964
42.0254 3.901
42.0735 3.406
42.1216 2.927
42.1697 2.771
42.2177 2.714
42.2658 2.344
42.3139 2.026
42.3620 1.620
42.4101 1.120
42.4582 1.089
42.5063 0.906
42.5543 0.984
42.6024 0.854
42.6505 0.906
42.6986 0.823
42.7467 0.766
42.7948 0.776
42.8429 0.792
42.8909 0.854
42.9390 1.052
42.9871 0.901
43.0352 0.708
43.0833 0.781
43.1314 0.719
43.1794 0.682
43.2275 0.651
43.2756 0.604
43.3237 0.646
43.3718 0.521
43.4199 0.542
43.4680 0.500
43.5160 0.552
43.5641 0.573
43.6122 0.521
43.6603 0.568
43.7084 0.448
43.7565 0.531
43.8045 0.521
43.8526 0.448
43.9007 0.641
43.9488 0.474
43.9969 0.609
44.0450 0.573
44.0931 0.667
44.1411 0.641
44.1892 0.677
44.2373 0.802
44.2854 0.833
44.3335 0.948
44.3816 1.031
44.4297 0.849
44.4777 0.932
44.5258 0.917
44.5739 0.953
44.6220 1.146
44.6701 1.177
44.7182 1.120
44.7662 1.000
44.8143 1.078
44.8624 0.938
44.9105 1.005
44.9586 1.193
45.0067 1.156
45.0548 1.229
45.1028 1.078
45.1509 1.130
45.1990 1.198
45.2471 1.536
45.2952 1.750
45.3433 1.911
45.3914 2.646
45.4394 2.984
45.4875 3.167
45.5356 2.828
45.5837 2.682
45.6318 2.396
45.6799 1.964
45.7279 1.766
45.7760 1.557
45.8241 1.630
45.8722 1.427
45.9203 1.510
45.9684 1.224
46.0165 1.219
46.0645 1.307
46.1126 1.156
46.1607 1.234
46.2088 1.172
46.2569 1.010
46.3050 0.911
46.3531 0.833
46.4011 0.708
46.4492 0.714
46.4973 0.750
46.5454 0.833
46.5935 0.688
46.6416 0.714
46.6896 0.995
46.7377 1.182
46.7858 1.115
46.8339 1.719
46.8820 1.672
46.9301 1.667
46.9782 1.641
47.0262 1.469
47.0743 1.406
47.1224 1.167
47.1705 0.964
47.2186 0.891
47.2667 1.005
47.3148 0.927
47.3628 0.818
47.4109 0.948
47.4590 0.938
47.5071 0.875
47.5552 0.792
47.6033 1.109
47.6513 1.089
47.6994 1.010
47.7475 1.083
47.7956 0.911
47.8437 1.057
47.8918 0.844
47.9399 0.807
47.9879 0.792
48.0360 0.630
48.0841 0.677
48.1322 0.625
48.1803 0.672
48.2284 0.609
48.2764 0.740
48.3245 0.677
48.3726 0.760
48.4207 0.745
48.4688 0.776
48.5169 0.771
48.5650 0.766
48.6130 0.797
48.6611 0.781
48.7092 0.802
48.7573 1.047
48.8054 1.094
48.8535 1.146
48.9016 1.203
48.9496 1.318
48.9977 1.328
49.0458 1.104
49.0939 1.234
49.1420 0.875
49.1901 1.052
49.2381 0.948
49.2862 0.885
49.3343 0.964
49.3824 1.089
49.4305 1.099
49.4786 1.307
49.5267 1.365
49.5747 1.474
49.6228 1.630
49.6709 1.260
49.7190 1.016
49.7671 1.073
49.8152 1.068
49.8633 0.984
49.9113 0.948
49.9594 1.188
50.0075 1.286
50.0556 1.281
50.1037 1.568
50.1518 1.615
50.1998 1.339
50.2479 1.318
50.2960 1.094
50.3441 1.016
50.3922 0.797
50.4403 0.661
50.4884 0.625
50.5364 0.693
50.5845 0.594
50.6326 0.625
50.6807 0.396
50.7288 0.547
50.7769 0.536
50.8250 0.438
50.8730 0.474
50.9211 0.432
50.9692 0.464
51.0173 0.417
51.0654 0.464
51.1135 0.484
51.1615 0.432
51.2096 0.396
51.2577 0.438
51.3058 0.391
51.3539 0.411
51.4020 0.385
51.4501 0.490
51.4981 0.484
51.5462 0.469
51.5943 0.411
51.6424 0.505
51.6905 0.484
51.7386 0.635
51.7867 0.656
51.8347 0.766
51.8828 0.917
51.9309 0.984
51.9790 0.917
52.0271 0.797
52.0752 0.854
52.1232 0.823
52.1713 0.786
52.2194 0.813
52.2675 0.813
52.3156 0.995
52.3637 1.010
52.4118 1.167
52.4598 1.042
52.5079 1.318
52.5560 1.385
52.6041 1.380
52.6522 1.318
52.7003 1.094
52.7483 1.109
52.7964 0.927
52.8445 0.818
52.8926 0.818
52.9407 0.688
52.9888 0.620
53.0369 0.688
53.0849 0.573
53.1330 0.391
53.1811 0.490
53.2292 0.438
53.2773 0.474
53.3254 0.391
53.3735 0.365
53.4215 0.391
53.4696 0.448
53.5177 0.401
53.5658 0.411
53.6139 0.484
53.6620 0.443
53.7100 0.411
53.7581 0.557
53.8062 0.620
53.8543 0.552
53.9024 0.453
53.9505 0.500
53.9986 0.464
54.0466 0.521
54.0947 0.396
54.1428 0.401
54.1909 0.453
54.2390 0.417
54.2871 0.458
54.3352 0.526
54.3832 0.609
54.4313 0.615
54.4794 0.547
54.5275 0.703
54.5756 0.703
54.6237 0.688
54.6717 0.682
54.7198 0.677
54.7679 0.792
54.8160 0.776
54.8641 0.859
54.9122 0.932
54.9603 0.901
55.0083 0.839
55.0564 0.865
55.1045 0.823
55.1526 0.776
55.2007 0.729
55.2488 0.781
55.2969 0.885
55.3449 0.781
55.3930 0.693
55.4411 0.635
55.4892 0.651
55.5373 0.641
55.5854 0.745
55.6334 0.682
55.6815 0.672
55.7296 0.615
55.7777 0.682
55.8258 0.688
55.8739 0.813
55.9220 0.844
55.9700 0.938
56.0181 1.068
56.0662 1.010
56.1143 1.031
56.1624 0.891
56.2105 0.906
56.2585 0.875
56.3066 0.990
56.3547 1.000
56.4028 1.250
56.4509 1.177
56.4990 1.411
56.5471 1.693
56.5951 1.948
56.6432 2.161
56.6913 2.281
56.7394 2.391
56.7875 2.609
56.8356 2.500
56.8837 2.557
56.9317 2.370
56.9798 2.245
57.0279 2.219
57.0760 2.073
57.1241 1.797
57.1722 1.698
57.2202 1.453
57.2683 1.297
57.3164 1.031
57.3645 1.010
57.4126 0.938
57.4607 0.823
57.5088 0.724
57.5568 0.750
57.6049 0.714
57.6530 0.495
57.7011 0.536
57.7492 0.568
57.7973 0.505
57.8454 0.703
57.8934 0.583
57.9415 0.677
57.9896 0.646
58.0377 0.672
58.0858 0.604
58.1339 0.719
58.1819 0.740
58.2300 0.792
58.2781 0.901
58.3262 0.932
58.3743 1.146
58.4224 1.484
58.4705 1.396
58.5185 1.208
58.5666 1.229
58.6147 1.260
58.6628 1.193
58.7109 1.297
58.7590 1.234
58.8071 1.495
58.8551 1.505
58.9032 1.641
58.9513 1.927
58.9994 1.927
59.0475 1.651
59.0956 1.620
59.1436 1.458
59.1917 1.182
59.2398 1.130
59.2879 0.724
59.3360 0.833
59.3841 0.776
59.4322 0.599
59.4802 0.661
59.5283 0.682
59.5764 0.594
59.6245 0.479
59.6726 0.589
59.7207 0.589
59.7688 0.583
59.8168 0.646
59.8649 0.615
59.9130 0.682
59.9611 0.703
60.0092 0.786
60.0573 0.745
60.1053 0.734
60.1534 0.818
60.2015 0.745
60.2496 0.630
60.2977 0.745
60.3458 0.901
60.3939 0.760
60.4419 0.979
60.4900 0.854
60.5381 0.964
60.5862 0.839
60.6343 0.781
60.6824 0.760
60.7304 0.635
60.7785 0.698
60.8266 0.698
60.8747 0.510
60.9228 0.604
60.9709 0.458
61.0190 0.438
61.0670 0.464
61.1151 0.510
61.1632 0.448
61.2113 0.432
61.2594 0.484
61.3075 0.411
61.3556 0.630
61.4036 0.599
61.4517 0.531
61.4998 0.682
61.5479 0.682
61.5960 0.786
61.6441 0.771
61.6921 0.786
61.7402 0.974
61.7883 0.786
61.8364 0.786
61.8845 0.688
61.9326 0.771
61.9807 0.630
62.0287 0.688
62.0768 0.625
62.1249 0.630
62.1730 0.630
62.2211 0.526
62.2692 0.495
62.3173 0.479
62.3653 0.521
62.4134 0.500
62.4615 0.557
62.5096 0.552
62.5577 0.490
62.6058 0.521
62.6538 0.484
62.7019 0.422
62.7500 0.563
62.7981 0.484
62.8462 0.536
62.8943 0.583
62.9424 0.536
62.9904 0.536
63.0385 0.609
63.0866 0.667
63.1347 0.563
63.1828 0.651
63.2309 0.557
63.2790 0.573
63.3270 0.714
63.3751 0.818
63.4232 0.865
63.4713 0.750
63.5194 0.740
63.5675 0.745
63.6155 0.802
63.6636 0.656
63.7117 0.818
63.7598 0.724
63.8079 0.802
63.8560 0.750
63.9041 0.844
63.9521 0.943
64.0002 0.859
64.0483 0.979
64.0964 1.031
64.1445 0.911
64.1926 0.839
64.2407 0.958
64.2887 0.932
64.3368 0.859
64.3849 0.885
64.4330 0.911
64.4811 0.927
64.5292 0.781
64.5772 0.906
64.6253 0.833
64.6734 0.729
64.7215 0.708
64.7696 0.625
64.8177 0.719
64.8658 0.620
64.9138 0.568
64.9619 0.510
65.0100 0.625
65.0581 0.510
65.1062 0.594
65.1543 0.594
65.2023 0.609
65.2504 0.557
65.2985 0.620
65.3466 0.630
65.3947 0.609
65.4428 0.719
65.4909 0.781
65.5389 0.859
65.5870 0.901
65.6351 0.974
65.6832 0.901
65.7313 1.026
65.7794 1.083
65.8275 0.911
65.8755 1.031
65.9236 0.958
65.9717 0.786
66.0198 0.927
66.0679 0.906
66.1160 0.792
66.1640 0.729
66.2121 0.620
66.2602 0.729
66.3083 0.813
66.3564 0.646
66.4045 0.766
66.4526 0.745
66.5006 0.859
66.5487 0.833
66.5968 0.781
66.6449 0.818
66.6930 0.646
66.7411 0.651
66.7892 0.714
66.8372 0.760
66.8853 0.922
66.9334 0.885
66.9815 1.115
67.0296 0.911
67.0777 0.896
67.1257 0.964
67.1738 0.771
67.2219 0.802
67.2700 0.625
67.3181 0.620
67.3662 0.635
67.4143 0.526
67.4623 0.516
67.5104 0.547
67.5585 0.547
67.6066 0.552
67.6547 0.531
67.7028 0.578
67.7509 0.583
67.7989 0.547
67.8470 0.573
67.8951 0.542
67.9432 0.594
67.9913 0.573
68.0394 0.563
68.0874 0.536
68.1355 0.500
68.1836 0.474
68.2317 0.474
68.2798 0.448
68.3279 0.500
68.3760 0.521
68.4240 0.500
68.4721 0.479
68.5202 0.417
68.5683 0.578
68.6164 0.594
68.6645 0.557
68.7126 0.505
68.7606 0.474
68.8087 0.458
68.8568 0.469
68.9049 0.557
68.9530 0.443
69.0011 0.469
69.0491 0.453
69.0972 0.391
69.1453 0.438
69.1934 0.380
69.2415 0.490
69.2896 0.359
69.3377 0.464
69.3857 0.401
69.4338 0.370
69.4819 0.391
69.5300 0.344
69.5781 0.401
69.6262 0.328
69.6742 0.401
69.7223 0.484
69.7704 0.458
69.8185 0.516
69.8666 0.474
69.9147 0.510
69.9628 0.448
70.0108 0.510