File: XRD/magnesium_oxide.xy
'Id: "" Comment: "" Operator: "Lab Manager" Anode: "Cu" Scantype: "Coupled TwoTheta/Theta" TimePerStep: "192"
5.0000 7.891
5.0481 7.479
5.0962 7.214
5.1443 6.807
5.1923 7.016
5.2404 6.714
5.2885 6.854
5.3366 6.990
5.3847 6.500
5.4328 6.484
5.4808 6.214
5.5289 6.318
5.5770 6.078
5.6251 5.948
5.6732 6.094
5.7213 6.063
5.7694 5.901
5.8174 5.693
5.8655 5.740
5.9136 5.802
5.9617 5.693
6.0098 5.453
6.0579 5.161
6.1060 5.313
6.1540 5.526
6.2021 5.542
6.2502 5.620
6.2983 5.313
6.3464 5.135
6.3945 5.094
6.4425 4.964
6.4906 5.099
6.5387 4.990
6.5868 4.964
6.6349 4.688
6.6830 4.724
6.7311 4.260
6.7791 4.557
6.8272 4.422
6.8753 4.417
6.9234 4.359
6.9715 4.391
7.0196 4.036
7.0677 3.948
7.1157 3.974
7.1638 4.094
7.2119 3.927
7.2600 3.859
7.3081 3.661
7.3562 3.953
7.4042 3.661
7.4523 3.948
7.5004 3.552
7.5485 3.703
7.5966 3.635
7.6447 3.620
7.6928 3.573
7.7408 3.740
7.7889 3.313
7.8370 3.484
7.8851 3.422
7.9332 3.344
7.9813 3.234
8.0294 3.333
8.0774 3.297
8.1255 3.083
8.1736 2.990
8.2217 3.031
8.2698 3.094
8.3179 2.865
8.3659 2.818
8.4140 2.906
8.4621 2.688
8.5102 2.656
8.5583 2.906
8.6064 2.656
8.6545 2.740
8.7025 2.917
8.7506 2.771
8.7987 3.234
8.8468 2.661
8.8949 2.531
8.9430 2.526
8.9911 2.339
9.0391 2.396
9.0872 2.188
9.1353 2.406
9.1834 2.271
9.2315 2.010
9.2796 2.229
9.3276 2.542
9.3757 2.406
9.4238 2.943
9.4719 3.521
9.5200 2.375
9.5681 1.948
9.6162 2.016
9.6642 1.938
9.7123 1.875
9.7604 1.927
9.8085 1.792
9.8566 1.661
9.9047 1.870
9.9527 1.708
10.0008 1.755
10.0489 1.651
10.0970 1.714
10.1451 1.896
10.1932 1.667
10.2413 1.672
10.2893 1.609
10.3374 1.656
10.3855 1.740
10.4336 1.599
10.4817 1.688
10.5298 1.578
10.5779 1.552
10.6259 1.583
10.6740 1.688
10.7221 1.526
10.7702 1.589
10.8183 1.708
10.8664 1.453
10.9144 1.370
10.9625 1.453
11.0106 1.495
11.0587 1.594
11.1068 1.484
11.1549 1.516
11.2030 1.396
11.2510 1.354
11.2991 1.453
11.3472 1.490
11.3953 1.411
11.4434 1.641
11.4915 1.417
11.5396 1.453
11.5876 1.339
11.6357 1.411
11.6838 1.479
11.7319 1.375
11.7800 1.422
11.8281 1.401
11.8761 1.328
11.9242 1.276
11.9723 1.203
12.0204 1.177
12.0685 1.349
12.1166 1.391
12.1647 1.240
12.2127 1.297
12.2608 1.266
12.3089 1.255
12.3570 1.281
12.4051 1.286
12.4532 1.172
12.5013 1.328
12.5493 1.115
12.5974 1.135
12.6455 1.161
12.6936 1.156
12.7417 1.130
12.7898 1.234
12.8378 1.057
12.8859 1.161
12.9340 1.099
12.9821 1.130
13.0302 1.135
13.0783 0.984
13.1264 1.125
13.1744 1.224
13.2225 1.089
13.2706 1.135
13.3187 1.141
13.3668 1.193
13.4149 1.135
13.4630 1.234
13.5110 0.974
13.5591 1.010
13.6072 1.120
13.6553 1.016
13.7034 1.203
13.7515 1.021
13.7995 1.036
13.8476 1.203
13.8957 1.057
13.9438 1.208
13.9919 1.125
14.0400 1.042
14.0881 1.047
14.1361 1.010
14.1842 0.979
14.2323 1.047
14.2804 1.047
14.3285 1.089
14.3766 0.969
14.4246 1.109
14.4727 0.911
14.5208 1.078
14.5689 0.948
14.6170 0.953
14.6651 1.042
14.7132 0.875
14.7612 0.818
14.8093 0.932
14.8574 0.880
14.9055 0.974
14.9536 1.026
15.0017 1.047
15.0498 1.005
15.0978 0.896
15.1459 0.943
15.1940 0.911
15.2421 0.969
15.2902 0.953
15.3383 1.073
15.3863 0.859
15.4344 1.073
15.4825 0.896
15.5306 0.813
15.5787 0.922
15.6268 0.990
15.6749 0.917
15.7229 0.828
15.7710 0.922
15.8191 1.026
15.8672 0.828
15.9153 0.823
15.9634 0.807
16.0115 0.901
16.0595 0.880
16.1076 0.802
16.1557 0.865
16.2038 0.880
16.2519 0.953
16.3000 0.833
16.3480 0.792
16.3961 0.870
16.4442 0.844
16.4923 0.802
16.5404 0.828
16.5885 0.927
16.6366 0.938
16.6846 0.859
16.7327 0.797
16.7808 0.771
16.8289 0.839
16.8770 0.880
16.9251 0.833
16.9732 0.839
17.0212 0.818
17.0693 0.719
17.1174 0.823
17.1655 0.875
17.2136 0.849
17.2617 0.880
17.3097 0.740
17.3578 0.740
17.4059 0.854
17.4540 0.797
17.5021 0.802
17.5502 0.792
17.5983 0.875
17.6463 0.786
17.6944 0.766
17.7425 0.698
17.7906 0.849
17.8387 0.708
17.8868 0.667
17.9348 0.813
17.9829 0.818
18.0310 0.771
18.0791 0.734
18.1272 0.745
18.1753 0.703
18.2234 0.677
18.2714 0.813
18.3195 0.813
18.3676 0.786
18.4157 0.745
18.4638 0.714
18.5119 0.839
18.5600 0.807
18.6080 0.870
18.6561 0.698
18.7042 0.740
18.7523 0.703
18.8004 0.724
18.8485 0.807
18.8965 0.734
18.9446 0.708
18.9927 0.708
19.0408 0.849
19.0889 0.698
19.1370 0.708
19.1851 0.688
19.2331 0.729
19.2812 0.729
19.3293 0.646
19.3774 0.698
19.4255 0.719
19.4736 0.698
19.5217 0.755
19.5697 0.786
19.6178 0.740
19.6659 0.656
19.7140 0.714
19.7621 0.693
19.8102 0.698
19.8582 0.641
19.9063 0.771
19.9544 0.594
20.0025 0.568
20.0506 0.724
20.0987 0.641
20.1468 0.682
20.1948 0.568
20.2429 0.719
20.2910 0.589
20.3391 0.641
20.3872 0.630
20.4353 0.589
20.4834 0.536
20.5314 0.641
20.5795 0.609
20.6276 0.490
20.6757 0.677
20.7238 0.641
20.7719 0.828
20.8199 0.792
20.8680 0.786
20.9161 0.693
20.9642 0.635
21.0123 0.672
21.0604 0.594
21.1085 0.547
21.1565 0.682
21.2046 0.568
21.2527 0.656
21.3008 0.589
21.3489 0.589
21.3970 0.656
21.4451 0.604
21.4931 0.693
21.5412 0.547
21.5893 0.656
21.6374 0.615
21.6855 0.693
21.7336 0.568
21.7816 0.620
21.8297 0.516
21.8778 0.563
21.9259 0.568
21.9740 0.604
22.0221 0.766
22.0702 0.542
22.1182 0.490
22.1663 0.583
22.2144 0.589
22.2625 0.563
22.3106 0.677
22.3587 0.547
22.4067 0.557
22.4548 0.641
22.5029 0.474
22.5510 0.604
22.5991 0.526
22.6472 0.542
22.6953 0.578
22.7433 0.599
22.7914 0.625
22.8395 0.661
22.8876 0.630
22.9357 0.547
22.9838 0.672
23.0319 0.625
23.0799 0.667
23.1280 0.583
23.1761 0.583
23.2242 0.672
23.2723 0.510
23.3204 0.542
23.3684 0.521
23.4165 0.526
23.4646 0.682
23.5127 0.536
23.5608 0.505
23.6089 0.448
23.6570 0.583
23.7050 0.516
23.7531 0.516
23.8012 0.589
23.8493 0.526
23.8974 0.521
23.9455 0.557
23.9936 0.448
24.0416 0.464
24.0897 0.526
24.1378 0.458
24.1859 0.568
24.2340 0.505
24.2821 0.557
24.3301 0.604
24.3782 0.495
24.4263 0.417
24.4744 0.510
24.5225 0.453
24.5706 0.620
24.6187 0.552
24.6667 0.542
24.7148 0.526
24.7629 0.630
24.8110 0.453
24.8591 0.490
24.9072 0.531
24.9553 0.375
25.0033 0.453
25.0514 0.536
25.0995 0.547
25.1476 0.573
25.1957 0.385
25.2438 0.526
25.2918 0.490
25.3399 0.552
25.3880 0.531
25.4361 0.490
25.4842 0.417
25.5323 0.552
25.5804 0.443
25.6284 0.583
25.6765 0.417
25.7246 0.438
25.7727 0.391
25.8208 0.495
25.8689 0.443
25.9170 0.495
25.9650 0.443
26.0131 0.375
26.0612 0.495
26.1093 0.526
26.1574 0.474
26.2055 0.563
26.2535 0.484
26.3016 0.516
26.3497 0.552
26.3978 0.464
26.4459 0.526
26.4940 0.620
26.5421 0.641
26.5901 0.781
26.6382 0.901
26.6863 0.682
26.7344 0.578
26.7825 0.479
26.8306 0.505
26.8786 0.464
26.9267 0.464
26.9748 0.448
27.0229 0.568
27.0710 0.490
27.1191 0.510
27.1672 0.401
27.2152 0.411
27.2633 0.495
27.3114 0.427
27.3595 0.521
27.4076 0.359
27.4557 0.510
27.5038 0.458
27.5518 0.495
27.5999 0.474
27.6480 0.516
27.6961 0.516
27.7442 0.500
27.7923 0.500
27.8403 0.557
27.8884 0.505
27.9365 0.568
27.9846 0.401
28.0327 0.417
28.0808 0.453
28.1289 0.578
28.1769 0.453
28.2250 0.542
28.2731 0.526
28.3212 0.516
28.3693 0.484
28.4174 0.552
28.4655 0.500
28.5135 0.505
28.5616 0.630
28.6097 1.052
28.6578 0.911
28.7059 0.766
28.7540 0.604
28.8020 0.453
28.8501 0.516
28.8982 0.432
28.9463 0.578
28.9944 0.505
29.0425 0.448
29.0906 0.495
29.1386 0.599
29.1867 0.583
29.2348 0.719
29.2829 0.849
29.3310 1.089
29.3791 1.828
29.4272 1.688
29.4752 1.172
29.5233 0.823
29.5714 0.609
29.6195 0.594
29.6676 0.500
29.7157 0.516
29.7637 0.453
29.8118 0.531
29.8599 0.479
29.9080 0.510
29.9561 0.516
30.0042 0.453
30.0523 0.427
30.1003 0.443
30.1484 0.464
30.1965 0.438
30.2446 0.464
30.2927 0.474
30.3408 0.438
30.3889 0.417
30.4369 0.448
30.4850 0.552
30.5331 0.432
30.5812 0.422
30.6293 0.464
30.6774 0.443
30.7254 0.427
30.7735 0.521
30.8216 0.516
30.8697 0.406
30.9178 0.500
30.9659 0.516
31.0140 0.479
31.0620 0.510
31.1101 0.448
31.1582 0.474
31.2063 0.469
31.2544 0.469
31.3025 0.432
31.3505 0.443
31.3986 0.370
31.4467 0.578
31.4948 0.531
31.5429 0.427
31.5910 0.453
31.6391 0.391
31.6871 0.349
31.7352 0.464
31.7833 0.516
31.8314 0.380
31.8795 0.510
31.9276 0.443
31.9757 0.432
32.0237 0.589
32.0718 0.651
32.1199 0.729
32.1680 0.750
32.2161 0.792
32.2642 0.578
32.3122 0.568
32.3603 0.573
32.4084 0.464
32.4565 0.505
32.5046 0.458
32.5527 0.417
32.6008 0.370
32.6488 0.396
32.6969 0.375
32.7450 0.396
32.7931 0.599
32.8412 0.349
32.8893 0.453
32.9374 0.302
32.9854 0.380
33.0335 0.406
33.0816 0.385
33.1297 0.375
33.1778 0.443
33.2259 0.464
33.2739 0.474
33.3220 0.510
33.3701 0.417
33.4182 0.365
33.4663 0.344
33.5144 0.453
33.5625 0.375
33.6105 0.500
33.6586 0.385
33.7067 0.344
33.7548 0.422
33.8029 0.458
33.8510 0.484
33.8991 0.469
33.9471 0.500
33.9952 0.536
34.0433 0.427
34.0914 0.495
34.1395 0.365
34.1876 0.464
34.2356 0.453
34.2837 0.542
34.3318 0.563
34.3799 0.401
34.4280 0.380
34.4761 0.385
34.5242 0.443
34.5722 0.505
34.6203 0.438
34.6684 0.391
34.7165 0.370
34.7646 0.417
34.8127 0.391
34.8607 0.490
34.9088 0.500
34.9569 0.453
35.0050 0.453
35.0531 0.385
35.1012 0.417
35.1493 0.448
35.1973 0.443
35.2454 0.458
35.2935 0.474
35.3416 0.484
35.3897 0.516
35.4378 0.458
35.4859 0.474
35.5339 0.411
35.5820 0.484
35.6301 0.505
35.6782 0.510
35.7263 0.411
35.7744 0.542
35.8224 0.474
35.8705 0.484
35.9186 0.469
35.9667 0.740
36.0148 0.615
36.0629 0.688
36.1110 0.542
36.1590 0.646
36.2071 0.641
36.2552 0.661
36.3033 0.677
36.3514 0.688
36.3995 0.792
36.4476 0.984
36.4956 0.943
36.5437 1.057
36.5918 1.198
36.6399 1.146
36.6880 1.391
36.7361 1.516
36.7841 1.719
36.8322 1.719
36.8803 1.760
36.9284 1.703
36.9765 1.792
37.0246 1.641
37.0727 1.599
37.1207 1.375
37.1688 1.245
37.2169 1.318
37.2650 1.219
37.3131 1.495
37.3612 1.401
37.4093 1.234
37.4573 1.021
37.5054 0.781
37.5535 0.724
37.6016 0.594
37.6497 0.516
37.6978 0.453
37.7458 0.563
37.7939 0.547
37.8420 0.484
37.8901 0.474
37.9382 0.448
37.9863 0.349
38.0344 0.344
38.0824 0.354
38.1305 0.411
38.1786 0.401
38.2267 0.417
38.2748 0.417
38.3229 0.417
38.3710 0.427
38.4190 0.422
38.4671 0.339
38.5152 0.448
38.5633 0.432
38.6114 0.438
38.6595 0.380
38.7075 0.396
38.7556 0.458
38.8037 0.417
38.8518 0.469
38.8999 0.359
38.9480 0.365
38.9961 0.495
39.0441 0.505
39.0922 0.349
39.1403 0.432
39.1884 0.401
39.2365 0.385
39.2846 0.536
39.3326 0.589
39.3807 0.635
39.4288 0.609
39.4769 0.583
39.5250 0.490
39.5731 0.411
39.6212 0.510
39.6692 0.510
39.7173 0.385
39.7654 0.458
39.8135 0.438
39.8616 0.401
39.9097 0.469
39.9578 0.484
40.0058 0.432
40.0539 0.354
40.1020 0.453
40.1501 0.443
40.1982 0.464
40.2463 0.484
40.2943 0.495
40.3424 0.391
40.3905 0.469
40.4386 0.505
40.4867 0.453
40.5348 0.536
40.5829 0.490
40.6309 0.500
40.6790 0.484
40.7271 0.443
40.7752 0.526
40.8233 0.526
40.8714 0.583
40.9195 0.516
40.9675 0.542
41.0156 0.589
41.0637 0.599
41.1118 0.464
41.1599 0.557
41.2080 0.651
41.2560 0.641
41.3041 0.708
41.3522 0.766
41.4003 0.745
41.4484 0.802
41.4965 0.750
41.5446 0.948
41.5926 0.896
41.6407 0.943
41.6888 0.922
41.7369 1.104
41.7850 1.151
41.8331 1.156
41.8812 1.260
41.9292 1.292
41.9773 1.406
42.0254 1.453
42.0735 1.734
42.1216 1.906
42.1697 2.292
42.2177 2.583
42.2658 2.724
42.3139 3.156
42.3620 3.776
42.4101 4.609
42.4582 5.568
42.5063 6.745
42.5543 8.297
42.6024 9.547
42.6505 11.589
42.6986 12.839
42.7467 14.354
42.7948 15.901
42.8429 16.620
42.8909 16.948
42.9390 16.427
42.9871 15.307
43.0352 13.755
43.0833 12.646
43.1314 10.734
43.1794 9.047
43.2275 7.615
43.2756 6.125
43.3237 5.120
43.3718 4.193
43.4199 3.443
43.4680 3.214
43.5160 2.604
43.5641 2.375
43.6122 1.995
43.6603 1.677
43.7084 1.495
43.7565 1.438
43.8045 1.266
43.8526 1.214
43.9007 1.083
43.9488 1.005
43.9969 0.990
44.0450 0.927
44.0931 0.938
44.1411 0.844
44.1892 0.828
44.2373 0.651
44.2854 0.656
44.3335 0.708
44.3816 0.651
44.4297 0.740
44.4777 0.693
44.5258 0.630
44.5739 0.573
44.6220 0.536
44.6701 0.568
44.7182 0.625
44.7662 0.609
44.8143 0.557
44.8624 0.552
44.9105 0.547
44.9586 0.484
45.0067 0.495
45.0548 0.547
45.1028 0.411
45.1509 0.464
45.1990 0.505
45.2471 0.432
45.2952 0.453
45.3433 0.453
45.3914 0.432
45.4394 0.411
45.4875 0.406
45.5356 0.365
45.5837 0.432
45.6318 0.464
45.6799 0.406
45.7279 0.490
45.7760 0.448
45.8241 0.417
45.8722 0.359
45.9203 0.417
45.9684 0.375
46.0165 0.349
46.0645 0.323
46.1126 0.396
46.1607 0.458
46.2088 0.380
46.2569 0.401
46.3050 0.464
46.3531 0.333
46.4011 0.370
46.4492 0.359
46.4973 0.438
46.5454 0.323
46.5935 0.302
46.6416 0.339
46.6896 0.370
46.7377 0.365
46.7858 0.276
46.8339 0.339
46.8820 0.401
46.9301 0.391
46.9782 0.349
47.0262 0.375
47.0743 0.464
47.1224 0.443
47.1705 0.401
47.2186 0.500
47.2667 0.417
47.3148 0.417
47.3628 0.547
47.4109 0.448
47.4590 0.510
47.5071 0.505
47.5552 0.422
47.6033 0.438
47.6513 0.411
47.6994 0.313
47.7475 0.432
47.7956 0.307
47.8437 0.406
47.8918 0.385
47.9399 0.401
47.9879 0.297
48.0360 0.313
48.0841 0.318
48.1322 0.302
48.1803 0.349
48.2284 0.333
48.2764 0.349
48.3245 0.417
48.3726 0.458
48.4207 0.469
48.4688 0.510
48.5169 0.479
48.5650 0.411
48.6130 0.448
48.6611 0.385
48.7092 0.302
48.7573 0.333
48.8054 0.313
48.8535 0.323
48.9016 0.380
48.9496 0.297
48.9977 0.292
49.0458 0.328
49.0939 0.333
49.1420 0.292
49.1901 0.214
49.2381 0.234
49.2862 0.292
49.3343 0.219
49.3824 0.260
49.4305 0.286
49.4786 0.313
49.5267 0.313
49.5747 0.292
49.6228 0.271
49.6709 0.240
49.7190 0.271
49.7671 0.286
49.8152 0.276
49.8633 0.245
49.9113 0.302
49.9594 0.255
50.0075 0.297
50.0556 0.328
50.1037 0.297
50.1518 0.281
50.1998 0.245
50.2479 0.328
50.2960 0.250
50.3441 0.266
50.3922 0.286
50.4403 0.286
50.4884 0.333
50.5364 0.323
50.5845 0.245
50.6326 0.318
50.6807 0.302
50.7288 0.349
50.7769 0.281
50.8250 0.234
50.8730 0.271
50.9211 0.292
50.9692 0.203
51.0173 0.266
51.0654 0.307
51.1135 0.276
51.1615 0.307
51.2096 0.297
51.2577 0.328
51.3058 0.229
51.3539 0.224
51.4020 0.297
51.4501 0.260
51.4981 0.266
51.5462 0.276
51.5943 0.260
51.6424 0.234
51.6905 0.250
51.7386 0.245
51.7867 0.266
51.8347 0.302
51.8828 0.208
51.9309 0.318
51.9790 0.286
52.0271 0.240
52.0752 0.214
52.1232 0.255
52.1713 0.234
52.2194 0.255
52.2675 0.260
52.3156 0.313
52.3637 0.323
52.4118 0.323
52.4598 0.271
52.5079 0.245
52.5560 0.234
52.6041 0.250
52.6522 0.318
52.7003 0.286
52.7483 0.229
52.7964 0.234
52.8445 0.250
52.8926 0.276
52.9407 0.234
52.9888 0.255
53.0369 0.250
53.0849 0.245
53.1330 0.260
53.1811 0.208
53.2292 0.307
53.2773 0.328
53.3254 0.214
53.3735 0.286
53.4215 0.307
53.4696 0.224
53.5177 0.271
53.5658 0.359
53.6139 0.313
53.6620 0.396
53.7100 0.391
53.7581 0.516
53.8062 0.677
53.8543 0.531
53.9024 0.568
53.9505 0.464
53.9986 0.422
54.0466 0.359
54.0947 0.375
54.1428 0.276
54.1909 0.266
54.2390 0.260
54.2871 0.276
54.3352 0.292
54.3832 0.240
54.4313 0.255
54.4794 0.260
54.5275 0.245
54.5756 0.245
54.6237 0.198
54.6717 0.240
54.7198 0.255
54.7679 0.260
54.8160 0.281
54.8641 0.255
54.9122 0.234
54.9603 0.266
55.0083 0.318
55.0564 0.229
55.1045 0.240
55.1526 0.224
55.2007 0.250
55.2488 0.224
55.2969 0.266
55.3449 0.198
55.3930 0.229
55.4411 0.234
55.4892 0.245
55.5373 0.224
55.5854 0.266
55.6334 0.234
55.6815 0.234
55.7296 0.260
55.7777 0.177
55.8258 0.266
55.8739 0.260
55.9220 0.240
55.9700 0.229
56.0181 0.234
56.0662 0.250
56.1143 0.328
56.1624 0.255
56.2105 0.250
56.2585 0.260
56.3066 0.271
56.3547 0.255
56.4028 0.198
56.4509 0.297
56.4990 0.292
56.5471 0.276
56.5951 0.224
56.6432 0.286
56.6913 0.266
56.7394 0.198
56.7875 0.281
56.8356 0.229
56.8837 0.250
56.9317 0.286
56.9798 0.208
57.0279 0.250
57.0760 0.240
57.1241 0.245
57.1722 0.234
57.2202 0.208
57.2683 0.307
57.3164 0.349
57.3645 0.354
57.4126 0.286
57.4607 0.318
57.5088 0.286
57.5568 0.260
57.6049 0.234
57.6530 0.271
57.7011 0.250
57.7492 0.313
57.7973 0.266
57.8454 0.229
57.8934 0.245
57.9415 0.234
57.9896 0.240
58.0377 0.198
58.0858 0.250
58.1339 0.229
58.1819 0.229
58.2300 0.234
58.2781 0.198
58.3262 0.229
58.3743 0.266
58.4224 0.224
58.4705 0.234
58.5185 0.177
58.5666 0.318
58.6147 0.302
58.6628 0.302
58.7109 0.281
58.7590 0.297
58.8071 0.281
58.8551 0.250
58.9032 0.297
58.9513 0.302
58.9994 0.193
59.0475 0.286
59.0956 0.203
59.1436 0.214
59.1917 0.307
59.2398 0.260
59.2879 0.208
59.3360 0.240
59.3841 0.271
59.4322 0.292
59.4802 0.313
59.5283 0.297
59.5764 0.307
59.6245 0.307
59.6726 0.349
59.7207 0.354
59.7688 0.323
59.8168 0.417
59.8649 0.375
59.9130 0.380
59.9611 0.354
60.0092 0.365
60.0573 0.344
60.1053 0.391
60.1534 0.401
60.2015 0.354
60.2496 0.307
60.2977 0.349
60.3458 0.474
60.3939 0.443
60.4419 0.380
60.4900 0.469
60.5381 0.385
60.5862 0.516
60.6343 0.547
60.6824 0.542
60.7304 0.594
60.7785 0.563
60.8266 0.547
60.8747 0.573
60.9228 0.599
60.9709 0.630
61.0190 0.604
61.0670 0.667
61.1151 0.625
61.1632 0.724
61.2113 0.750
61.2594 0.828
61.3075 0.833
61.3556 1.042
61.4036 0.995
61.4517 1.151
61.4998 1.151
61.5479 1.286
61.5960 1.656
61.6441 1.875
61.6921 2.109
61.7402 2.578
61.7883 2.625
61.8364 3.182
61.8845 3.724
61.9326 4.135
61.9807 4.672
62.0287 6.042
62.0768 6.380
62.1249 6.865
62.1730 7.891
62.2211 7.964
62.2692 8.094
62.3173 7.766
62.3653 7.594
62.4134 6.953
62.4615 6.193
62.5096 5.589
62.5577 4.813
62.6058 4.354
62.6538 3.797
62.7019 3.063
62.7500 2.599
62.7981 2.339
62.8462 1.891
62.8943 1.677
62.9424 1.370
62.9904 1.328
63.0385 1.172
63.0866 1.036
63.1347 0.839
63.1828 0.885
63.2309 0.776
63.2790 0.682
63.3270 0.693
63.3751 0.635
63.4232 0.563
63.4713 0.552
63.5194 0.526
63.5675 0.474
63.6155 0.568
63.6636 0.432
63.7117 0.417
63.7598 0.438
63.8079 0.474
63.8560 0.448
63.9041 0.469
63.9521 0.422
64.0002 0.484
64.0483 0.505
64.0964 0.380
64.1445 0.417
64.1926 0.359
64.2407 0.411
64.2887 0.365
64.3368 0.443
64.3849 0.323
64.4330 0.307
64.4811 0.339
64.5292 0.396
64.5772 0.328
64.6253 0.359
64.6734 0.333
64.7215 0.344
64.7696 0.349
64.8177 0.250
64.8658 0.359
64.9138 0.375
64.9619 0.323
65.0100 0.271
65.0581 0.240
65.1062 0.292
65.1543 0.286
65.2023 0.260
65.2504 0.323
65.2985 0.370
65.3466 0.255
65.3947 0.276
65.4428 0.276
65.4909 0.307
65.5389 0.302
65.5870 0.224
65.6351 0.250
65.6832 0.297
65.7313 0.318
65.7794 0.240
65.8275 0.323
65.8755 0.255
65.9236 0.276
65.9717 0.328
66.0198 0.354
66.0679 0.307
66.1160 0.240
66.1640 0.255
66.2121 0.229
66.2602 0.245
66.3083 0.313
66.3564 0.286
66.4045 0.167
66.4526 0.255
66.5006 0.224
66.5487 0.255
66.5968 0.214
66.6449 0.198
66.6930 0.208
66.7411 0.240
66.7892 0.328
66.8372 0.245
66.8853 0.266
66.9334 0.224
66.9815 0.245
67.0296 0.276
67.0777 0.255
67.1257 0.240
67.1738 0.198
67.2219 0.292
67.2700 0.333
67.3181 0.281
67.3662 0.354
67.4143 0.307
67.4623 0.271
67.5104 0.286
67.5585 0.318
67.6066 0.344
67.6547 0.219
67.7028 0.271
67.7509 0.203
67.7989 0.250
67.8470 0.260
67.8951 0.240
67.9432 0.219
67.9913 0.208
68.0394 0.255
68.0874 0.271
68.1355 0.286
68.1836 0.302
68.2317 0.245
68.2798 0.281
68.3279 0.349
68.3760 0.234
68.4240 0.214
68.4721 0.219
68.5202 0.177
68.5683 0.198
68.6164 0.214
68.6645 0.302
68.7126 0.255
68.7606 0.266
68.8087 0.229
68.8568 0.307
68.9049 0.224
68.9530 0.208
69.0011 0.214
69.0491 0.286
69.0972 0.271
69.1453 0.203
69.1934 0.240
69.2415 0.188
69.2896 0.245
69.3377 0.255
69.3857 0.214
69.4338 0.208
69.4819 0.167
69.5300 0.182
69.5781 0.245
69.6262 0.219
69.6742 0.234
69.7223 0.224
69.7704 0.182
69.8185 0.182
69.8666 0.229
69.9147 0.203
69.9628 0.214
70.0108 0.208