File: XRD/silica_fume.xy
'Id: "" Comment: "" Operator: "Lab Manager" Anode: "Cu" Scantype: "Coupled TwoTheta/Theta" TimePerStep: "192"
5.0000 6.615
5.0481 6.438
5.0962 6.391
5.1443 6.391
5.1923 6.568
5.2404 6.229
5.2885 5.943
5.3366 5.760
5.3847 6.016
5.4328 5.781
5.4808 5.708
5.5289 5.797
5.5770 5.474
5.6251 5.542
5.6732 5.599
5.7213 5.297
5.7694 5.313
5.8174 5.333
5.8655 5.380
5.9136 5.406
5.9617 5.286
6.0098 5.250
6.0579 4.839
6.1060 4.828
6.1540 5.203
6.2021 5.010
6.2502 4.974
6.2983 4.953
6.3464 4.802
6.3945 5.146
6.4425 4.589
6.4906 4.729
6.5387 4.813
6.5868 4.859
6.6349 4.286
6.6830 4.380
6.7311 4.427
6.7791 4.443
6.8272 4.406
6.8753 4.521
6.9234 4.198
6.9715 4.047
7.0196 4.036
7.0677 4.063
7.1157 4.031
7.1638 4.130
7.2119 4.073
7.2600 3.906
7.3081 3.677
7.3562 3.948
7.4042 3.807
7.4523 4.031
7.5004 3.792
7.5485 3.599
7.5966 3.661
7.6447 3.786
7.6928 3.661
7.7408 3.578
7.7889 3.422
7.8370 3.297
7.8851 3.297
7.9332 3.281
7.9813 3.172
8.0294 3.318
8.0774 3.448
8.1255 3.141
8.1736 3.094
8.2217 3.078
8.2698 3.063
8.3179 2.927
8.3659 2.953
8.4140 3.031
8.4621 2.964
8.5102 3.042
8.5583 2.844
8.6064 2.828
8.6545 2.760
8.7025 2.870
8.7506 2.849
8.7987 2.828
8.8468 2.740
8.8949 2.583
8.9430 2.682
8.9911 2.536
9.0391 2.406
9.0872 2.495
9.1353 2.417
9.1834 2.656
9.2315 2.370
9.2796 2.401
9.3276 2.339
9.3757 2.427
9.4238 2.208
9.4719 2.229
9.5200 2.302
9.5681 2.177
9.6162 1.870
9.6642 2.193
9.7123 2.182
9.7604 2.188
9.8085 1.984
9.8566 2.031
9.9047 1.964
9.9527 2.078
10.0008 2.094
10.0489 1.938
10.0970 2.026
10.1451 1.964
10.1932 1.984
10.2413 1.927
10.2893 2.031
10.3374 1.948
10.3855 1.958
10.4336 1.854
10.4817 1.786
10.5298 1.911
10.5779 1.901
10.6259 1.990
10.6740 1.828
10.7221 1.859
10.7702 1.802
10.8183 1.885
10.8664 1.719
10.9144 1.849
10.9625 1.813
11.0106 1.865
11.0587 1.807
11.1068 1.734
11.1549 1.922
11.2030 1.885
11.2510 1.703
11.2991 1.745
11.3472 1.922
11.3953 1.938
11.4434 1.766
11.4915 1.818
11.5396 1.865
11.5876 1.589
11.6357 1.724
11.6838 1.828
11.7319 1.583
11.7800 1.615
11.8281 1.656
11.8761 1.891
11.9242 1.922
11.9723 1.875
12.0204 1.635
12.0685 1.807
12.1166 1.807
12.1647 1.661
12.2127 1.646
12.2608 1.833
12.3089 1.698
12.3570 1.651
12.4051 1.672
12.4532 1.802
12.5013 1.609
12.5493 1.922
12.5974 1.688
12.6455 1.625
12.6936 1.917
12.7417 1.734
12.7898 1.630
12.8378 1.693
12.8859 1.521
12.9340 1.771
12.9821 1.516
13.0302 1.760
13.0783 1.526
13.1264 1.714
13.1744 1.656
13.2225 1.750
13.2706 1.641
13.3187 1.557
13.3668 1.651
13.4149 1.495
13.4630 1.474
13.5110 1.708
13.5591 1.635
13.6072 1.766
13.6553 1.688
13.7034 1.828
13.7515 1.563
13.7995 1.630
13.8476 1.682
13.8957 1.760
13.9438 1.667
13.9919 1.698
14.0400 1.729
14.0881 1.531
14.1361 1.661
14.1842 1.656
14.2323 1.635
14.2804 1.755
14.3285 1.656
14.3766 1.563
14.4246 1.531
14.4727 1.583
14.5208 1.719
14.5689 1.740
14.6170 1.693
14.6651 1.672
14.7132 1.604
14.7612 1.688
14.8093 1.760
14.8574 1.630
14.9055 1.724
14.9536 1.630
15.0017 1.505
15.0498 1.708
15.0978 1.583
15.1459 1.536
15.1940 1.646
15.2421 1.750
15.2902 1.641
15.3383 1.635
15.3863 1.656
15.4344 1.833
15.4825 1.599
15.5306 1.630
15.5787 1.714
15.6268 1.750
15.6749 1.760
15.7229 1.724
15.7710 1.719
15.8191 1.844
15.8672 1.651
15.9153 1.714
15.9634 1.792
16.0115 1.854
16.0595 1.896
16.1076 1.771
16.1557 1.880
16.2038 1.792
16.2519 1.750
16.3000 1.964
16.3480 1.698
16.3961 1.693
16.4442 1.953
16.4923 1.797
16.5404 1.755
16.5885 1.885
16.6366 1.990
16.6846 1.729
16.7327 1.964
16.7808 1.703
16.8289 2.063
16.8770 1.875
16.9251 1.891
16.9732 1.896
17.0212 1.823
17.0693 1.938
17.1174 2.031
17.1655 1.839
17.2136 2.057
17.2617 2.083
17.3097 1.854
17.3578 1.922
17.4059 1.958
17.4540 2.047
17.5021 2.198
17.5502 2.172
17.5983 2.042
17.6463 1.917
17.6944 1.875
17.7425 2.068
17.7906 2.182
17.8387 2.333
17.8868 2.161
17.9348 2.245
17.9829 2.125
18.0310 2.135
18.0791 2.229
18.1272 2.224
18.1753 2.359
18.2234 2.188
18.2714 2.177
18.3195 2.297
18.3676 2.286
18.4157 2.068
18.4638 2.135
18.5119 2.260
18.5600 2.365
18.6080 2.036
18.6561 2.229
18.7042 2.422
18.7523 2.302
18.8004 2.266
18.8485 2.526
18.8965 2.401
18.9446 2.573
18.9927 2.495
19.0408 2.302
19.0889 2.443
19.1370 2.422
19.1851 2.516
19.2331 2.563
19.2812 2.552
19.3293 2.490
19.3774 2.604
19.4255 2.630
19.4736 2.714
19.5217 2.740
19.5697 2.797
19.6178 2.615
19.6659 2.589
19.7140 2.729
19.7621 2.510
19.8102 2.526
19.8582 2.688
19.9063 2.719
19.9544 2.745
20.0025 2.557
20.0506 2.740
20.0987 2.755
20.1468 2.885
20.1948 2.703
20.2429 2.750
20.2910 2.573
20.3391 2.818
20.3872 2.740
20.4353 2.776
20.4834 2.953
20.5314 2.948
20.5795 3.036
20.6276 2.833
20.6757 2.984
20.7238 2.703
20.7719 2.839
20.8199 3.031
20.8680 3.083
20.9161 3.292
20.9642 2.943
21.0123 2.875
21.0604 3.172
21.1085 2.922
21.1565 3.104
21.2046 2.953
21.2527 3.099
21.3008 2.880
21.3489 2.797
21.3970 2.880
21.4451 2.906
21.4931 2.786
21.5412 2.932
21.5893 3.026
21.6374 2.813
21.6855 3.089
21.7336 3.063
21.7816 2.974
21.8297 3.109
21.8778 2.943
21.9259 3.099
21.9740 3.036
22.0221 2.932
22.0702 3.026
22.1182 2.786
22.1663 2.984
22.2144 2.839
22.2625 2.870
22.3106 2.646
22.3587 2.641
22.4067 2.703
22.4548 2.698
22.5029 2.656
22.5510 2.714
22.5991 2.823
22.6472 2.516
22.6953 2.703
22.7433 2.880
22.7914 2.677
22.8395 2.729
22.8876 2.521
22.9357 2.547
22.9838 2.594
23.0319 2.563
23.0799 2.630
23.1280 2.776
23.1761 2.682
23.2242 2.630
23.2723 2.448
23.3204 2.495
23.3684 2.620
23.4165 2.677
23.4646 2.568
23.5127 2.297
23.5608 2.323
23.6089 2.505
23.6570 2.193
23.7050 2.380
23.7531 2.438
23.8012 2.250
23.8493 2.521
23.8974 2.208
23.9455 2.542
23.9936 2.172
24.0416 2.260
24.0897 2.271
24.1378 2.229
24.1859 2.104
24.2340 2.318
24.2821 2.422
24.3301 2.344
24.3782 2.146
24.4263 2.292
24.4744 2.266
24.5225 2.073
24.5706 2.182
24.6187 2.073
24.6667 2.031
24.7148 1.964
24.7629 2.151
24.8110 2.250
24.8591 2.057
24.9072 2.125
24.9553 1.828
25.0033 2.141
25.0514 1.974
25.0995 1.995
25.1476 2.120
25.1957 1.938
25.2438 2.031
25.2918 2.052
25.3399 2.125
25.3880 1.948
25.4361 1.771
25.4842 1.875
25.5323 1.813
25.5804 1.688
25.6284 1.906
25.6765 1.802
25.7246 1.859
25.7727 1.844
25.8208 1.875
25.8689 1.823
25.9170 1.870
25.9650 1.641
26.0131 1.854
26.0612 1.682
26.1093 1.521
26.1574 1.693
26.2055 1.906
26.2535 1.677
26.3016 1.823
26.3497 1.479
26.3978 1.781
26.4459 1.688
26.4940 1.651
26.5421 1.604
26.5901 1.797
26.6382 1.766
26.6863 1.766
26.7344 1.630
26.7825 1.630
26.8306 1.542
26.8786 1.453
26.9267 1.500
26.9748 1.547
27.0229 1.432
27.0710 1.604
27.1191 1.500
27.1672 1.599
27.2152 1.344
27.2633 1.448
27.3114 1.495
27.3595 1.526
27.4076 1.339
27.4557 1.391
27.5038 1.547
27.5518 1.479
27.5999 1.385
27.6480 1.708
27.6961 1.495
27.7442 1.464
27.7923 1.406
27.8403 1.443
27.8884 1.344
27.9365 1.375
27.9846 1.479
28.0327 1.286
28.0808 1.406
28.1289 1.422
28.1769 1.464
28.2250 1.458
28.2731 1.354
28.3212 1.422
28.3693 1.245
28.4174 1.286
28.4655 1.354
28.5135 1.365
28.5616 1.260
28.6097 1.370
28.6578 1.359
28.7059 1.318
28.7540 1.234
28.8020 1.380
28.8501 1.198
28.8982 1.323
28.9463 1.208
28.9944 1.073
29.0425 1.234
29.0906 1.229
29.1386 1.286
29.1867 1.276
29.2348 1.135
29.2829 1.146
29.3310 1.276
29.3791 1.177
29.4272 1.260
29.4752 1.250
29.5233 1.089
29.5714 1.042
29.6195 1.094
29.6676 1.245
29.7157 1.005
29.7637 1.005
29.8118 1.229
29.8599 1.198
29.9080 1.026
29.9561 1.172
30.0042 1.042
30.0523 1.016
30.1003 1.146
30.1484 1.109
30.1965 1.052
30.2446 1.063
30.2927 1.141
30.3408 1.078
30.3889 1.135
30.4369 1.156
30.4850 1.182
30.5331 0.943
30.5812 1.109
30.6293 1.036
30.6774 1.151
30.7254 1.125
30.7735 1.172
30.8216 1.094
30.8697 1.125
30.9178 1.057
30.9659 1.120
31.0140 1.089
31.0620 0.938
31.1101 1.057
31.1582 0.964
31.2063 1.026
31.2544 1.193
31.3025 1.130
31.3505 1.089
31.3986 1.089
31.4467 0.922
31.4948 0.974
31.5429 0.906
31.5910 1.047
31.6391 0.995
31.6871 0.984
31.7352 1.083
31.7833 0.958
31.8314 1.177
31.8795 1.078
31.9276 0.901
31.9757 1.036
32.0237 0.974
32.0718 1.016
32.1199 0.813
32.1680 0.917
32.2161 1.042
32.2642 0.938
32.3122 1.010
32.3603 0.875
32.4084 0.875
32.4565 0.990
32.5046 0.891
32.5527 1.042
32.6008 0.943
32.6488 0.901
32.6969 0.807
32.7450 0.807
32.7931 0.880
32.8412 0.875
32.8893 0.948
32.9374 0.891
32.9854 0.995
33.0335 0.880
33.0816 0.984
33.1297 1.000
33.1778 0.927
33.2259 0.854
33.2739 0.896
33.3220 0.870
33.3701 0.885
33.4182 0.818
33.4663 0.771
33.5144 0.844
33.5625 0.990
33.6105 0.797
33.6586 0.906
33.7067 0.938
33.7548 0.974
33.8029 0.901
33.8510 0.938
33.8991 0.865
33.9471 0.870
33.9952 0.854
34.0433 0.807
34.0914 0.958
34.1395 0.755
34.1876 0.901
34.2356 0.792
34.2837 0.781
34.3318 0.813
34.3799 0.891
34.4280 0.927
34.4761 0.750
34.5242 0.760
34.5722 0.766
34.6203 0.974
34.6684 0.750
34.7165 0.906
34.7646 0.911
34.8127 0.802
34.8607 0.849
34.9088 0.776
34.9569 0.870
35.0050 0.828
35.0531 0.922
35.1012 0.911
35.1493 0.839
35.1973 0.745
35.2454 0.865
35.2935 0.865
35.3416 0.802
35.3897 0.818
35.4378 0.802
35.4859 0.885
35.5339 0.990
35.5820 1.156
35.6301 1.609
35.6782 1.505
35.7263 1.495
35.7744 1.146
35.8224 0.948
35.8705 0.823
35.9186 0.943
35.9667 0.839
36.0148 0.766
36.0629 0.828
36.1110 0.839
36.1590 0.760
36.2071 0.875
36.2552 0.698
36.3033 0.672
36.3514 0.776
36.3995 0.766
36.4476 0.802
36.4956 0.703
36.5437 0.776
36.5918 0.745
36.6399 0.719
36.6880 0.672
36.7361 0.755
36.7841 0.839
36.8322 0.677
36.8803 0.729
36.9284 0.688
36.9765 0.771
37.0246 0.698
37.0727 0.719
37.1207 0.719
37.1688 0.698
37.2169 0.802
37.2650 0.766
37.3131 0.661
37.3612 0.646
37.4093 0.698
37.4573 0.740
37.5054 0.734
37.5535 0.667
37.6016 0.609
37.6497 0.641
37.6978 0.729
37.7458 0.620
37.7939 0.677
37.8420 0.651
37.8901 0.734
37.9382 0.625
37.9863 0.625
38.0344 0.620
38.0824 0.641
38.1305 0.641
38.1786 0.589
38.2267 0.641
38.2748 0.646
38.3229 0.609
38.3710 0.583
38.4190 0.594
38.4671 0.781
38.5152 0.630
38.5633 0.594
38.6114 0.568
38.6595 0.641
38.7075 0.594
38.7556 0.641
38.8037 0.505
38.8518 0.542
38.8999 0.547
38.9480 0.589
38.9961 0.630
39.0441 0.635
39.0922 0.630
39.1403 0.755
39.1884 0.682
39.2365 0.552
39.2846 0.698
39.3326 0.531
39.3807 0.688
39.4288 0.672
39.4769 0.620
39.5250 0.604
39.5731 0.630
39.6212 0.578
39.6692 0.552
39.7173 0.557
39.7654 0.563
39.8135 0.599
39.8616 0.521
39.9097 0.542
39.9578 0.589
40.0058 0.599
40.0539 0.552
40.1020 0.542
40.1501 0.526
40.1982 0.552
40.2463 0.531
40.2943 0.490
40.3424 0.526
40.3905 0.625
40.4386 0.552
40.4867 0.516
40.5348 0.484
40.5829 0.656
40.6309 0.635
40.6790 0.521
40.7271 0.557
40.7752 0.510
40.8233 0.479
40.8714 0.552
40.9195 0.563
40.9675 0.573
41.0156 0.604
41.0637 0.568
41.1118 0.583
41.1599 0.573
41.2080 0.552
41.2560 0.573
41.3041 0.719
41.3522 0.563
41.4003 0.641
41.4484 0.599
41.4965 0.646
41.5446 0.516
41.5926 0.693
41.6407 0.620
41.6888 0.495
41.7369 0.594
41.7850 0.531
41.8331 0.552
41.8812 0.641
41.9292 0.469
41.9773 0.495
42.0254 0.656
42.0735 0.516
42.1216 0.552
42.1697 0.578
42.2177 0.448
42.2658 0.552
42.3139 0.557
42.3620 0.552
42.4101 0.661
42.4582 0.635
42.5063 0.583
42.5543 0.594
42.6024 0.521
42.6505 0.552
42.6986 0.536
42.7467 0.573
42.7948 0.505
42.8429 0.526
42.8909 0.646
42.9390 0.547
42.9871 0.536
43.0352 0.578
43.0833 0.526
43.1314 0.505
43.1794 0.589
43.2275 0.641
43.2756 0.542
43.3237 0.542
43.3718 0.620
43.4199 0.656
43.4680 0.557
43.5160 0.552
43.5641 0.604
43.6122 0.557
43.6603 0.526
43.7084 0.563
43.7565 0.479
43.8045 0.536
43.8526 0.469
43.9007 0.589
43.9488 0.589
43.9969 0.469
44.0450 0.583
44.0931 0.573
44.1411 0.604
44.1892 0.438
44.2373 0.536
44.2854 0.510
44.3335 0.578
44.3816 0.547
44.4297 0.464
44.4777 0.594
44.5258 0.547
44.5739 0.583
44.6220 0.526
44.6701 0.604
44.7182 0.505
44.7662 0.604
44.8143 0.563
44.8624 0.531
44.9105 0.443
44.9586 0.573
45.0067 0.526
45.0548 0.557
45.1028 0.599
45.1509 0.625
45.1990 0.484
45.2471 0.583
45.2952 0.495
45.3433 0.599
45.3914 0.604
45.4394 0.484
45.4875 0.474
45.5356 0.510
45.5837 0.542
45.6318 0.625
45.6799 0.620
45.7279 0.521
45.7760 0.651
45.8241 0.557
45.8722 0.583
45.9203 0.542
45.9684 0.557
46.0165 0.464
46.0645 0.573
46.1126 0.557
46.1607 0.594
46.2088 0.547
46.2569 0.521
46.3050 0.443
46.3531 0.469
46.4011 0.542
46.4492 0.641
46.4973 0.510
46.5454 0.604
46.5935 0.495
46.6416 0.557
46.6896 0.453
46.7377 0.510
46.7858 0.464
46.8339 0.505
46.8820 0.542
46.9301 0.542
46.9782 0.563
47.0262 0.500
47.0743 0.552
47.1224 0.578
47.1705 0.474
47.2186 0.594
47.2667 0.552
47.3148 0.625
47.3628 0.526
47.4109 0.516
47.4590 0.500
47.5071 0.500
47.5552 0.484
47.6033 0.630
47.6513 0.516
47.6994 0.547
47.7475 0.516
47.7956 0.536
47.8437 0.563
47.8918 0.453
47.9399 0.609
47.9879 0.505
48.0360 0.521
48.0841 0.516
48.1322 0.438
48.1803 0.573
48.2284 0.458
48.2764 0.557
48.3245 0.484
48.3726 0.422
48.4207 0.573
48.4688 0.422
48.5169 0.516
48.5650 0.568
48.6130 0.490
48.6611 0.531
48.7092 0.536
48.7573 0.521
48.8054 0.380
48.8535 0.359
48.9016 0.547
48.9496 0.484
48.9977 0.557
49.0458 0.453
49.0939 0.578
49.1420 0.427
49.1901 0.521
49.2381 0.542
49.2862 0.438
49.3343 0.495
49.3824 0.458
49.4305 0.484
49.4786 0.490
49.5267 0.505
49.5747 0.432
49.6228 0.526
49.6709 0.552
49.7190 0.516
49.7671 0.458
49.8152 0.552
49.8633 0.573
49.9113 0.563
49.9594 0.609
50.0075 0.422
50.0556 0.469
50.1037 0.510
50.1518 0.453
50.1998 0.552
50.2479 0.417
50.2960 0.521
50.3441 0.438
50.3922 0.448
50.4403 0.526
50.4884 0.432
50.5364 0.469
50.5845 0.443
50.6326 0.599
50.6807 0.542
50.7288 0.531
50.7769 0.484
50.8250 0.568
50.8730 0.370
50.9211 0.453
50.9692 0.427
51.0173 0.536
51.0654 0.484
51.1135 0.448
51.1615 0.490
51.2096 0.510
51.2577 0.438
51.3058 0.594
51.3539 0.510
51.4020 0.505
51.4501 0.490
51.4981 0.474
51.5462 0.438
51.5943 0.411
51.6424 0.427
51.6905 0.552
51.7386 0.484
51.7867 0.490
51.8347 0.547
51.8828 0.510
51.9309 0.526
51.9790 0.453
52.0271 0.406
52.0752 0.406
52.1232 0.500
52.1713 0.438
52.2194 0.432
52.2675 0.484
52.3156 0.500
52.3637 0.422
52.4118 0.385
52.4598 0.469
52.5079 0.516
52.5560 0.484
52.6041 0.495
52.6522 0.406
52.7003 0.521
52.7483 0.469
52.7964 0.531
52.8445 0.448
52.8926 0.484
52.9407 0.490
52.9888 0.484
53.0369 0.469
53.0849 0.526
53.1330 0.479
53.1811 0.411
53.2292 0.401
53.2773 0.411
53.3254 0.375
53.3735 0.432
53.4215 0.495
53.4696 0.453
53.5177 0.427
53.5658 0.432
53.6139 0.573
53.6620 0.427
53.7100 0.443
53.7581 0.531
53.8062 0.458
53.8543 0.536
53.9024 0.417
53.9505 0.432
53.9986 0.542
54.0466 0.401
54.0947 0.448
54.1428 0.505
54.1909 0.521
54.2390 0.427
54.2871 0.453
54.3352 0.458
54.3832 0.568
54.4313 0.432
54.4794 0.531
54.5275 0.531
54.5756 0.448
54.6237 0.396
54.6717 0.349
54.7198 0.385
54.7679 0.490
54.8160 0.469
54.8641 0.406
54.9122 0.542
54.9603 0.589
55.0083 0.432
55.0564 0.359
55.1045 0.438
55.1526 0.458
55.2007 0.391
55.2488 0.375
55.2969 0.531
55.3449 0.427
55.3930 0.500
55.4411 0.474
55.4892 0.438
55.5373 0.479
55.5854 0.474
55.6334 0.458
55.6815 0.427
55.7296 0.391
55.7777 0.458
55.8258 0.443
55.8739 0.438
55.9220 0.469
55.9700 0.406
56.0181 0.479
56.0662 0.495
56.1143 0.474
56.1624 0.521
56.2105 0.495
56.2585 0.438
56.3066 0.479
56.3547 0.521
56.4028 0.505
56.4509 0.516
56.4990 0.536
56.5471 0.422
56.5951 0.458
56.6432 0.490
56.6913 0.516
56.7394 0.422
56.7875 0.536
56.8356 0.453
56.8837 0.458
56.9317 0.469
56.9798 0.396
57.0279 0.469
57.0760 0.469
57.1241 0.505
57.1722 0.453
57.2202 0.438
57.2683 0.396
57.3164 0.432
57.3645 0.427
57.4126 0.484
57.4607 0.521
57.5088 0.458
57.5568 0.427
57.6049 0.432
57.6530 0.391
57.7011 0.531
57.7492 0.563
57.7973 0.453
57.8454 0.438
57.8934 0.484
57.9415 0.464
57.9896 0.474
58.0377 0.406
58.0858 0.521
58.1339 0.458
58.1819 0.432
58.2300 0.448
58.2781 0.432
58.3262 0.359
58.3743 0.443
58.4224 0.453
58.4705 0.427
58.5185 0.474
58.5666 0.469
58.6147 0.500
58.6628 0.500
58.7109 0.458
58.7590 0.484
58.8071 0.417
58.8551 0.443
58.9032 0.510
58.9513 0.422
58.9994 0.427
59.0475 0.438
59.0956 0.458
59.1436 0.401
59.1917 0.443
59.2398 0.536
59.2879 0.474
59.3360 0.438
59.3841 0.391
59.4322 0.505
59.4802 0.443
59.5283 0.484
59.5764 0.380
59.6245 0.536
59.6726 0.531
59.7207 0.536
59.7688 0.500
59.8168 0.484
59.8649 0.552
59.9130 0.578
59.9611 1.083
60.0092 0.766
60.0573 0.625
60.1053 0.818
60.1534 0.651
60.2015 0.547
60.2496 0.490
60.2977 0.526
60.3458 0.510
60.3939 0.484
60.4419 0.302
60.4900 0.448
60.5381 0.427
60.5862 0.526
60.6343 0.401
60.6824 0.500
60.7304 0.531
60.7785 0.516
60.8266 0.547
60.8747 0.500
60.9228 0.526
60.9709 0.531
61.0190 0.479
61.0670 0.484
61.1151 0.432
61.1632 0.589
61.2113 0.573
61.2594 0.573
61.3075 0.510
61.3556 0.458
61.4036 0.500
61.4517 0.583
61.4998 0.521
61.5479 0.474
61.5960 0.458
61.6441 0.411
61.6921 0.495
61.7402 0.479
61.7883 0.542
61.8364 0.380
61.8845 0.401
61.9326 0.495
61.9807 0.464
62.0287 0.469
62.0768 0.531
62.1249 0.521
62.1730 0.557
62.2211 0.495
62.2692 0.552
62.3173 0.500
62.3653 0.469
62.4134 0.469
62.4615 0.438
62.5096 0.432
62.5577 0.568
62.6058 0.469
62.6538 0.484
62.7019 0.484
62.7500 0.464
62.7981 0.391
62.8462 0.479
62.8943 0.536
62.9424 0.500
62.9904 0.505
63.0385 0.448
63.0866 0.557
63.1347 0.490
63.1828 0.521
63.2309 0.500
63.2790 0.557
63.3270 0.391
63.3751 0.443
63.4232 0.432
63.4713 0.411
63.5194 0.526
63.5675 0.453
63.6155 0.521
63.6636 0.458
63.7117 0.500
63.7598 0.490
63.8079 0.432
63.8560 0.495
63.9041 0.521
63.9521 0.427
64.0002 0.495
64.0483 0.385
64.0964 0.474
64.1445 0.401
64.1926 0.500
64.2407 0.438
64.2887 0.443
64.3368 0.458
64.3849 0.568
64.4330 0.417
64.4811 0.552
64.5292 0.521
64.5772 0.411
64.6253 0.469
64.6734 0.500
64.7215 0.495
64.7696 0.448
64.8177 0.474
64.8658 0.438
64.9138 0.536
64.9619 0.411
65.0100 0.432
65.0581 0.469
65.1062 0.443
65.1543 0.516
65.2023 0.495
65.2504 0.578
65.2985 0.510
65.3466 0.547
65.3947 0.406
65.4428 0.531
65.4909 0.464
65.5389 0.401
65.5870 0.453
65.6351 0.448
65.6832 0.391
65.7313 0.469
65.7794 0.458
65.8275 0.526
65.8755 0.469
65.9236 0.474
65.9717 0.500
66.0198 0.510
66.0679 0.542
66.1160 0.536
66.1640 0.458
66.2121 0.443
66.2602 0.427
66.3083 0.505
66.3564 0.531
66.4045 0.443
66.4526 0.448
66.5006 0.484
66.5487 0.516
66.5968 0.521
66.6449 0.469
66.6930 0.380
66.7411 0.604
66.7892 0.469
66.8372 0.484
66.8853 0.505
66.9334 0.422
66.9815 0.422
67.0296 0.469
67.0777 0.479
67.1257 0.401
67.1738 0.490
67.2219 0.427
67.2700 0.432
67.3181 0.417
67.3662 0.490
67.4143 0.526
67.4623 0.464
67.5104 0.375
67.5585 0.526
67.6066 0.594
67.6547 0.411
67.7028 0.469
67.7509 0.500
67.7989 0.474
67.8470 0.474
67.8951 0.531
67.9432 0.495
67.9913 0.516
68.0394 0.474
68.0874 0.500
68.1355 0.495
68.1836 0.484
68.2317 0.495
68.2798 0.526
68.3279 0.458
68.3760 0.458
68.4240 0.505
68.4721 0.406
68.5202 0.505
68.5683 0.438
68.6164 0.469
68.6645 0.505
68.7126 0.453
68.7606 0.464
68.8087 0.521
68.8568 0.474
68.9049 0.411
68.9530 0.417
69.0011 0.469
69.0491 0.458
69.0972 0.474
69.1453 0.401
69.1934 0.438
69.2415 0.458
69.2896 0.458
69.3377 0.469
69.3857 0.323
69.4338 0.510
69.4819 0.375
69.5300 0.531
69.5781 0.396
69.6262 0.505
69.6742 0.411
69.7223 0.505
69.7704 0.474
69.8185 0.557
69.8666 0.510
69.9147 0.385
69.9628 0.521
70.0108 0.448