File: TGA/silica_fume.txt
Filename:	C:\Users\Bown_304\Desktop\Jordan\TGA\silica_fume@241216130237.t6d
Operator ID:	Jordan
Sample ID:	silica_fume
Comment: 	Silica fume
Serial Number:	537L14021001
Data Collected:	12/16/2024 2:30:38 PM
Sample Weight:	14.705 mg
Display Weight:	14.705
Validation
Validated:	No
By:
Date:
Calibration Information
Filename:	C:\Program Files\PerkinElmer\Pyris\Calibrations\2023-04-05-Mary.tg1c
Date/Time:	4/5/2023 3:36:31 PM
Initial Conditions
Temperature:	 20.00 °C
Baseline Filename:
End Condition:	Go To Load
Total Points in Run:	5280
Method Steps:
Pre-Run Actions
Start the Run
	Action occurs Immediately
Switch the Gas to Nitrogen at 20.0 ml/min
	Action occurs Immediately
1)	Heat from 20.00°C to 900.00°C at 10.00°C/min

1) TGA Temperature Scan
	Time     	Unsubtracted	Baseline     	Program     	Sample     	Approx.     	R25 Diagnostic
	          	Weight     	Weight     	Temperature	Temperature	Gas Flow     	Temperature
	0.000000	14.7043	0.000000	20.004	19.054	0.000000
	0.100000	14.7037	0.000000	21.004	19.103	0.000000
	0.200000	14.7032	0.000000	22.004	19.134	0.000000
	0.300000	14.7029	0.000000	23.004	19.186	0.000000
	0.400000	14.7024	0.000000	24.004	19.237	0.000000
	0.500000	14.7024	0.000000	25.004	19.186	0.000000
	0.600000	14.7021	0.000000	26.004	19.128	0.000000
	0.700000	14.7017	0.000000	27.004	19.043	0.000000
	0.800000	14.7015	0.000000	28.004	19.001	0.000000
	0.900000	14.7018	0.000000	29.004	19.252	0.000000
	1.000000	14.702	0.000000	30.004	19.682	0.000000
	1.100000	14.7018	0.000000	31.004	20.332	0.000000
	1.200000	14.702	0.000000	32.004	21.208	0.000000
	1.300000	14.7021	0.000000	33.004	22.074	0.000000
	1.400000	14.7018	0.000000	34.004	22.957	0.000000
	1.500000	14.7023	0.000000	35.004	23.867	0.000000
	1.600000	14.7025	0.000000	36.004	24.881	0.000000
	1.700000	14.7027	0.000000	37.004	25.883	0.000000
	1.800000	14.7028	0.000000	38.004	26.909	0.000000
	1.900000	14.7025	0.000000	39.004	27.96	0.000000
	2.000000	14.7027	0.000000	40.004	28.973	0.000000
	2.100000	14.7024	0.000000	41.004	30.008	0.000000
	2.200000	14.7022	0.000000	42.004	31.05	0.000000
	2.300000	14.702	0.000000	43.004	31.999	0.000000
	2.400000	14.7019	0.000000	44.004	33.032	0.000000
	2.500000	14.7017	0.000000	45.004	33.95	0.000000
	2.600000	14.7014	0.000000	46.004	35.02	0.000000
	2.700000	14.7013	0.000000	47.004	36.003	0.000000
	2.800000	14.7011	0.000000	48.004	37.018	0.000000
	2.900000	14.7009	0.000000	49.004	38.095	0.000000
	3.000000	14.7013	0.000000	50.004	39.187	0.000000
	3.100000	14.7009	0.000000	51.004	40.253	0.000000
	3.200000	14.7009	0.000000	52.004	41.303	0.000000
	3.300000	14.7007	0.000000	53.004	42.344	0.000000
	3.400000	14.7011	0.000000	54.004	43.335	0.000000
	3.500000	14.701	0.000000	55.004	44.403	0.000000
	3.600000	14.7005	0.000000	56.004	45.429	0.000000
	3.700000	14.7003	0.000000	57.004	46.523	0.000000
	3.800000	14.7002	0.000000	58.004	47.624	0.000000
	3.900000	14.7002	0.000000	59.004	48.726	0.000000
	4.000000	14.7001	0.000000	60.004	49.815	0.000000
	4.100000	14.7001	0.000000	61.004	50.899	0.000000
	4.200000	14.6998	0.000000	62.004	51.945	0.000000
	4.300000	14.6996	0.000000	63.004	53.067	0.000000
	4.400000	14.6994	0.000000	64.004	54.172	0.000000
	4.500000	14.6993	0.000000	65.004	55.209	0.000000
	4.600000	14.6991	0.000000	66.004	56.266	0.000000
	4.700000	14.6988	0.000000	67.004	57.267	0.000000
	4.800000	14.6985	0.000000	68.004	58.361	0.000000
	4.900000	14.6987	0.000000	69.004	59.379	0.000000
	5.000000	14.6985	0.000000	70.004	60.467	0.000000
	5.100000	14.6984	0.000000	71.004	61.48	0.000000
	5.200000	14.698	0.000000	72.004	62.537	0.000000
	5.300000	14.6983	0.000000	73.004	63.558	0.000000
	5.400000	14.6981	0.000000	74.004	64.635	0.000000
	5.500000	14.698	0.000000	75.004	65.747	0.000000
	5.600000	14.6978	0.000000	76.004	66.837	0.000000
	5.700000	14.6977	0.000000	77.004	67.937	0.000000
	5.800000	14.6977	0.000000	78.004	68.992	0.000000
	5.900000	14.6975	0.000000	79.004	70.108	0.000000
	6.000000	14.6975	0.000000	80.004	71.181	0.000000
	6.100000	14.6974	0.000000	81.004	72.174	0.000000
	6.200000	14.6973	0.000000	82.004	73.294	0.000000
	6.300000	14.6971	0.000000	83.004	74.353	0.000000
	6.400000	14.6971	0.000000	84.004	75.42	0.000000
	6.500000	14.6972	0.000000	85.004	76.44	0.000000
	6.600000	14.6968	0.000000	86.004	77.502	0.000000
	6.700000	14.697	0.000000	87.004	78.543	0.000000
	6.800000	14.6966	0.000000	88.004	79.63	0.000000
	6.900000	14.6963	0.000000	89.004	80.741	0.000000
	7.000000	14.6965	0.000000	90.004	81.821	0.000000
	7.100000	14.6964	0.000000	91.004	82.923	0.000000
	7.200000	14.6966	0.000000	92.004	84.038	0.000000
	7.300000	14.6965	0.000000	93.004	85.197	0.000000
	7.400000	14.6965	0.000000	94.004	86.276	0.000000
	7.500000	14.6965	0.000000	95.004	87.355	0.000000
	7.600000	14.6966	0.000000	96.004	88.391	0.000000
	7.700000	14.6965	0.000000	97.004	89.453	0.000000
	7.800000	14.6964	0.000000	98.004	90.52	0.000000
	7.900000	14.6964	0.000000	99.004	91.629	0.000000
	8.000000	14.6963	0.000000	100.004	92.755	0.000000
	8.100000	14.6962	0.000000	101.004	93.828	0.000000
	8.200000	14.6962	0.000000	102.004	94.903	0.000000
	8.300000	14.6961	0.000000	103.004	96.034	0.000000
	8.400000	14.6962	0.000000	104.004	97.133	0.000000
	8.500000	14.6962	0.000000	105.004	98.222	0.000000
	8.600000	14.6961	0.000000	106.004	99.342	0.000000
	8.700000	14.6959	0.000000	107.004	100.404	0.000000
	8.800000	14.6959	0.000000	108.004	101.407	0.000000
	8.900000	14.6956	0.000000	109.004	102.516	0.000000
	9.000000	14.6961	0.000000	110.004	103.597	0.000000
	9.100000	14.6957	0.000000	111.004	104.657	0.000000
	9.200000	14.6956	0.000000	112.004	105.701	0.000000
	9.300000	14.6956	0.000000	113.004	106.728	0.000000
	9.400000	14.6955	0.000000	114.004	107.759	0.000000
	9.500000	14.6954	0.000000	115.004	108.829	0.000000
	9.600000	14.6955	0.000000	116.004	109.906	0.000000
	9.700000	14.6955	0.000000	117.004	110.925	0.000000
	9.800000	14.6955	0.000000	118.004	111.911	0.000000
	9.900000	14.6955	0.000000	119.004	112.959	0.000000
	10	14.6953	0.000000	120.004	113.985	0.000000
	10.1	14.6951	0.000000	121.004	114.967	0.000000
	10.2	14.695	0.000000	122.004	115.928	0.000000
	10.3	14.695	0.000000	123.004	116.943	0.000000
	10.4	14.6948	0.000000	124.004	117.893	0.000000
	10.5	14.6947	0.000000	125.004	118.832	0.000000
	10.6	14.6944	0.000000	126.004	119.88	0.000000
	10.7	14.6945	0.000000	127.004	120.824	0.000000
	10.8	14.6943	0.000000	128.004	121.786	0.000000
	10.9	14.6942	0.000000	129.004	122.804	0.000000
	11	14.6939	0.000000	130.004	123.848	0.000000
	11.1	14.6937	0.000000	131.004	124.857	0.000000
	11.2	14.6938	0.000000	132.004	125.854	0.000000
	11.3	14.6934	0.000000	133.004	126.84	0.000000
	11.4	14.6933	0.000000	134.004	127.838	0.000000
	11.5	14.6931	0.000000	135.004	128.848	0.000000
	11.6	14.6928	0.000000	136.004	129.899	0.000000
	11.7	14.6928	0.000000	137.004	130.919	0.000000
	11.8	14.6927	0.000000	138.004	131.902	0.000000
	11.9	14.6926	0.000000	139.004	132.85	0.000000
	12	14.6924	0.000000	140.004	133.808	0.000000
	12.1	14.6922	0.000000	141.004	134.758	0.000000
	12.2	14.6921	0.000000	142.004	135.736	0.000000
	12.3	14.692	0.000000	143.004	136.712	0.000000
	12.4	14.692	0.000000	144.004	137.759	0.000000
	12.5	14.6916	0.000000	145.004	138.749	0.000000
	12.6	14.6915	0.000000	146.004	139.816	0.000000
	12.7	14.6914	0.000000	147.004	140.874	0.000000
	12.8	14.6913	0.000000	148.004	141.902	0.000000
	12.9	14.6907	0.000000	149.004	142.891	0.000000
	13	14.6907	0.000000	150.004	143.858	0.000000
	13.1	14.6906	0.000000	151.004	144.825	0.000000
	13.2	14.6905	0.000000	152.004	145.822	0.000000
	13.3	14.6902	0.000000	153.004	146.789	0.000000
	13.4	14.69	0.000000	154.004	147.88	0.000000
	13.5	14.6901	0.000000	155.004	148.91	0.000000
	13.6	14.6899	0.000000	156.004	149.927	0.000000
	13.7	14.6897	0.000000	157.004	150.986	0.000000
	13.8	14.6892	0.000000	158.004	152.006	0.000000
	13.9	14.689	0.000000	159.004	153.036	0.000000
	14	14.6891	0.000000	160.004	154.022	0.000000
	14.1	14.6888	0.000000	161.004	154.966	0.000000
	14.2	14.6887	0.000000	162.004	155.977	0.000000
	14.3	14.6884	0.000000	163.004	157.013	0.000000
	14.4	14.6882	0.000000	164.004	157.928	0.000000
	14.5	14.6881	0.000000	165.004	158.891	0.000000
	14.6	14.6876	0.000000	166.004	159.917	0.000000
	14.7	14.6876	0.000000	167.004	160.899	0.000000
	14.8	14.6874	0.000000	168.004	161.921	0.000000
	14.9	14.6872	0.000000	169.004	162.862	0.000000
	15	14.687	0.000000	170.004	163.791	0.000000
	15.1	14.6867	0.000000	171.004	164.751	0.000000
	15.2	14.6862	0.000000	172.004	165.748	0.000000
	15.3	14.6858	0.000000	173.004	166.686	0.000000
	15.4	14.6858	0.000000	174.004	167.673	0.000000
	15.5	14.6852	0.000000	175.004	168.753	0.000000
	15.6	14.6849	0.000000	176.004	169.724	0.000000
	15.7	14.6849	0.000000	177.004	170.667	0.000000
	15.8	14.6847	0.000000	178.004	171.643	0.000000
	15.9	14.6847	0.000000	179.004	172.664	0.000000
	16	14.6843	0.000000	180.004	173.704	0.000000
	16.1	14.684	0.000000	181.004	174.699	0.000000
	16.2	14.6835	0.000000	182.004	175.798	0.000000
	16.3	14.6834	0.000000	183.004	176.802	0.000000
	16.4	14.6831	0.000000	184.004	177.74	0.000000
	16.5	14.6829	0.000000	185.004	178.747	0.000000
	16.6	14.6827	0.000000	186.004	179.74	0.000000
	16.7	14.6823	0.000000	187.004	180.787	0.000000
	16.8	14.6821	0.000000	188.004	181.772	0.000000
	16.9	14.682	0.000000	189.004	182.689	0.000000
	17	14.6819	0.000000	190.004	183.726	0.000000
	17.1	14.6816	0.000000	191.004	184.755	0.000000
	17.2	14.6813	0.000000	192.004	185.716	0.000000
	17.3	14.681	0.000000	193.004	186.827	0.000000
	17.4	14.6806	0.000000	194.004	187.815	0.000000
	17.5	14.6806	0.000000	195.004	188.763	0.000000
	17.6	14.6801	0.000000	196.004	189.743	0.000000
	17.7	14.6798	0.000000	197.004	190.69	0.000000
	17.8	14.6795	0.000000	198.004	191.713	0.000000
	17.9	14.6792	0.000000	199.004	192.745	0.000000
	18	14.6789	0.000000	200.004	193.724	0.000000
	18.1	14.6789	0.000000	201.004	194.813	0.000000
	18.2	14.6784	0.000000	202.004	195.775	0.000000
	18.3	14.6781	0.000000	203.004	196.749	0.000000
	18.4	14.6781	0.000000	204.004	197.743	0.000000
	18.5	14.6776	0.000000	205.004	198.738	0.000000
	18.6	14.6775	0.000000	206.004	199.806	0.000000
	18.7	14.6772	0.000000	207.004	200.818	0.000000
	18.8	14.6769	0.000000	208.004	201.812	0.000000
	18.9	14.6767	0.000000	209.004	202.83	0.000000
	19	14.6764	0.000000	210.004	203.923	0.000000
	19.1	14.6764	0.000000	211.004	204.94	0.000000
	19.2	14.676	0.000000	212.004	205.961	0.000000
	19.3	14.6759	0.000000	213.004	207.015	0.000000
	19.4	14.6757	0.000000	214.004	207.957	0.000000
	19.5	14.6754	0.000000	215.004	208.952	0.000000
	19.6	14.6752	0.000000	216.004	210.022	0.000000
	19.7	14.675	0.000000	217.004	211.052	0.000000
	19.8	14.6745	0.000000	218.004	212.034	0.000000
	19.9	14.6744	0.000000	219.004	213.022	0.000000
	20	14.6743	0.000000	220.004	213.989	0.000000
	20.1	14.6741	0.000000	221.004	214.893	0.000000
	20.2	14.6738	0.000000	222.004	215.863	0.000000
	20.3	14.6737	0.000000	223.004	216.9	0.000000
	20.4	14.6735	0.000000	224.004	217.899	0.000000
	20.5	14.6731	0.000000	225.004	218.861	0.000000
	20.6	14.6726	0.000000	226.004	219.812	0.000000
	20.7	14.6727	0.000000	227.004	220.808	0.000000
	20.8	14.6723	0.000000	228.004	221.898	0.000000
	20.9	14.6721	0.000000	229.004	222.854	0.000000
	21	14.6715	0.000000	230.004	223.795	0.000000
	21.1	14.6712	0.000000	231.004	224.768	0.000000
	21.2	14.6712	0.000000	232.004	225.772	0.000000
	21.3	14.6712	0.000000	233.004	226.829	0.000000
	21.4	14.6708	0.000000	234.004	227.793	0.000000
	21.5	14.6706	0.000000	235.004	228.849	0.000000
	21.6	14.6704	0.000000	236.004	229.865	0.000000
	21.7	14.6701	0.000000	237.004	230.784	0.000000
	21.8	14.6698	0.000000	238.004	231.814	0.000000
	21.9	14.6693	0.000000	239.004	232.828	0.000000
	22	14.6692	0.000000	240.004	233.784	0.000000
	22.1	14.669	0.000000	241.004	234.76	0.000000
	22.2	14.6689	0.000000	242.004	235.7	0.000000
	22.3	14.6687	0.000000	243.004	236.685	0.000000
	22.4	14.6683	0.000000	244.004	237.698	0.000000
	22.5	14.6681	0.000000	245.004	238.673	0.000000
	22.6	14.6677	0.000000	246.004	239.688	0.000000
	22.7	14.6678	0.000000	247.004	240.661	0.000000
	22.8	14.6674	0.000000	248.004	241.611	0.000000
	22.9	14.6671	0.000000	249.004	242.593	0.000000
	23	14.6669	0.000000	250.004	243.559	0.000000
	23.1	14.6666	0.000000	251.004	244.541	0.000000
	23.2	14.6664	0.000000	252.004	245.598	0.000000
	23.3	14.6662	0.000000	253.004	246.546	0.000000
	23.4	14.6661	0.000000	254.004	247.503	0.000000
	23.5	14.6658	0.000000	255.004	248.527	0.000000
	23.6	14.6655	0.000000	256.004	249.564	0.000000
	23.7	14.6653	0.000000	257.004	250.561	0.000000
	23.8	14.6648	0.000000	258.004	251.546	0.000000
	23.9	14.6647	0.000000	259.004	252.567	0.000000
	24	14.6643	0.000000	260.004	253.607	0.000000
	24.1	14.664	0.000000	261.004	254.615	0.000000
	24.2	14.6637	0.000000	262.004	255.578	0.000000
	24.3	14.6635	0.000000	263.004	256.572	0.000000
	24.4	14.6634	0.000000	264.004	257.59	0.000000
	24.5	14.6634	0.000000	265.004	258.52	0.000000
	24.6	14.6631	0.000000	266.004	259.53	0.000000
	24.7	14.6629	0.000000	267.004	260.535	0.000000
	24.8	14.6625	0.000000	268.004	261.561	0.000000
	24.9	14.6624	0.000000	269.004	262.539	0.000000
	25	14.6621	0.000000	270.004	263.546	0.000000
	25.1	14.6621	0.000000	271.004	264.582	0.000000
	25.2	14.6618	0.000000	272.004	265.596	0.000000
	25.3	14.6618	0.000000	273.004	266.547	0.000000
	25.4	14.6616	0.000000	274.004	267.501	0.000000
	25.5	14.6614	0.000000	275.004	268.454	0.000000
	25.6	14.6613	0.000000	276.004	269.504	0.000000
	25.7	14.6609	0.000000	277.004	270.503	0.000000
	25.8	14.6605	0.000000	278.004	271.482	0.000000
	25.9	14.6602	0.000000	279.004	272.476	0.000000
	26	14.6602	0.000000	280.004	273.51	0.000000
	26.1	14.6602	0.000000	281.004	274.556	0.000000
	26.2	14.6599	0.000000	282.004	275.54	0.000000
	26.3	14.6598	0.000000	283.004	276.583	0.000000
	26.4	14.6595	0.000000	284.004	277.613	0.000000
	26.5	14.6591	0.000000	285.004	278.661	0.000000
	26.6	14.6589	0.000000	286.004	279.652	0.000000
	26.7	14.6588	0.000000	287.004	280.592	0.000000
	26.8	14.6584	0.000000	288.004	281.571	0.000000
	26.9	14.6582	0.000000	289.004	282.565	0.000000
	27	14.6581	0.000000	290.004	283.615	0.000000
	27.1	14.6578	0.000000	291.004	284.587	0.000000
	27.2	14.6576	0.000000	292.004	285.533	0.000000
	27.3	14.6573	0.000000	293.004	286.503	0.000000
	27.4	14.6575	0.000000	294.004	287.497	0.000000
	27.5	14.6574	0.000000	295.004	288.452	0.000000
	27.6	14.6573	0.000000	296.004	289.43	0.000000
	27.7	14.6569	0.000000	297.004	290.435	0.000000
	27.8	14.6569	0.000000	298.004	291.494	0.000000
	27.9	14.6563	0.000000	299.004	292.533	0.000000
	28	14.6562	0.000000	300.004	293.503	0.000000
	28.1	14.656	0.000000	301.004	294.452	0.000000
	28.2	14.6561	0.000000	302.004	295.467	0.000000
	28.3	14.6558	0.000000	303.004	296.46	0.000000
	28.4	14.6556	0.000000	304.004	297.466	0.000000
	28.5	14.6553	0.000000	305.004	298.47	0.000000
	28.6	14.6553	0.000000	306.004	299.52	0.000000
	28.7	14.655	0.000000	307.004	300.571	0.000000
	28.8	14.6547	0.000000	308.004	301.666	0.000000
	28.9	14.6544	0.000000	309.004	302.705	0.000000
	29	14.6544	0.000000	310.004	303.709	0.000000
	29.1	14.6541	0.000000	311.004	304.669	0.000000
	29.2	14.6542	0.000000	312.004	305.63	0.000000
	29.3	14.6539	0.000000	313.004	306.577	0.000000
	29.4	14.6536	0.000000	314.004	307.485	0.000000
	29.5	14.6532	0.000000	315.004	308.459	0.000000
	29.6	14.6533	0.000000	316.004	309.447	0.000000
	29.7	14.6532	0.000000	317.004	310.389	0.000000
	29.8	14.6531	0.000000	318.004	311.284	0.000000
	29.9	14.6529	0.000000	319.004	312.234	0.000000
	30	14.6525	0.000000	320.004	313.241	0.000000
	30.1	14.6523	0.000000	321.004	314.211	0.000000
	30.2	14.652	0.000000	322.004	315.16	0.000000
	30.3	14.6518	0.000000	323.004	316.18	0.000000
	30.4	14.6517	0.000000	324.004	317.177	0.000000
	30.5	14.6517	0.000000	325.004	318.153	0.000000
	30.6	14.6516	0.000000	326.004	319.116	0.000000
	30.7	14.6513	0.000000	327.004	320.125	0.000000
	30.8	14.6514	0.000000	328.004	321.11	0.000000
	30.9	14.651	0.000000	329.004	322.167	0.000000
	31	14.6508	0.000000	330.004	323.182	0.000000
	31.1	14.6507	0.000000	331.004	324.171	0.000000
	31.2	14.6505	0.000000	332.004	325.183	0.000000
	31.3	14.65	0.000000	333.004	326.14	0.000000
	31.4	14.6498	0.000000	334.004	327.165	0.000000
	31.5	14.6495	0.000000	335.004	328.118	0.000000
	31.6	14.6495	0.000000	336.004	329.13	0.000000
	31.7	14.6493	0.000000	337.004	330.046	0.000000
	31.8	14.6488	0.000000	338.004	331.008	0.000000
	31.9	14.6488	0.000000	339.004	332.011	0.000000
	32	14.6486	0.000000	340.004	333.015	0.000000
	32.1	14.6488	0.000000	341.004	334.015	0.000000
	32.2	14.6485	0.000000	342.004	335.042	0.000000
	32.3	14.6488	0.000000	343.004	336.053	0.000000
	32.4	14.6485	0.000000	344.004	337.066	0.000000
	32.5	14.6481	0.000000	345.004	338.132	0.000000
	32.6	14.6478	0.000000	346.004	339.213	0.000000
	32.7	14.6474	0.000000	347.004	340.159	0.000000
	32.8	14.6472	0.000000	348.004	341.105	0.000000
	32.9	14.6473	0.000000	349.004	341.999	0.000000
	33	14.6474	0.000000	350.004	342.955	0.000000
	33.1	14.6472	0.000000	351.004	343.898	0.000000
	33.2	14.6471	0.000000	352.004	344.837	0.000000
	33.3	14.6465	0.000000	353.004	345.785	0.000000
	33.4	14.6467	0.000000	354.004	346.712	0.000000
	33.5	14.6467	0.000000	355.004	347.703	0.000000
	33.6	14.6465	0.000000	356.004	348.748	0.000000
	33.7	14.6462	0.000000	357.004	349.726	0.000000
	33.8	14.646	0.000000	358.004	350.694	0.000000
	33.9	14.6457	0.000000	359.004	351.603	0.000000
	34	14.6453	0.000000	360.004	352.615	0.000000
	34.1	14.6455	0.000000	361.004	353.639	0.000000
	34.2	14.6454	0.000000	362.004	354.703	0.000000
	34.3	14.6452	0.000000	363.004	355.755	0.000000
	34.4	14.645	0.000000	364.004	356.76	0.000000
	34.5	14.6446	0.000000	365.004	357.755	0.000000
	34.6	14.6444	0.000000	366.004	358.718	0.000000
	34.7	14.6442	0.000000	367.004	359.689	0.000000
	34.8	14.6442	0.000000	368.004	360.713	0.000000
	34.9	14.6441	0.000000	369.004	361.782	0.000000
	35	14.644	0.000000	370.004	362.845	0.000000
	35.1	14.6438	0.000000	371.004	363.871	0.000000
	35.2	14.6438	0.000000	372.004	364.853	0.000000
	35.3	14.6434	0.000000	373.004	365.789	0.000000
	35.4	14.6435	0.000000	374.004	366.737	0.000000
	35.5	14.6431	0.000000	375.004	367.73	0.000000
	35.6	14.643	0.000000	376.004	368.736	0.000000
	35.7	14.6429	0.000000	377.004	369.657	0.000000
	35.8	14.643	0.000000	378.004	370.698	0.000000
	35.9	14.6427	0.000000	379.004	371.694	0.000000
	36	14.642	0.000000	380.004	372.759	0.000000
	36.1	14.642	0.000000	381.004	373.738	0.000000
	36.2	14.6421	0.000000	382.004	374.719	0.000000
	36.3	14.6419	0.000000	383.004	375.71	0.000000
	36.4	14.6417	0.000000	384.004	376.682	0.000000
	36.5	14.6416	0.000000	385.004	377.73	0.000000
	36.6	14.6412	0.000000	386.004	378.688	0.000000
	36.7	14.6413	0.000000	387.004	379.678	0.000000
	36.8	14.6411	0.000000	388.004	380.654	0.000000
	36.9	14.641	0.000000	389.004	381.662	0.000000
	37	14.6408	0.000000	390.004	382.639	0.000000
	37.1	14.6407	0.000000	391.004	383.643	0.000000
	37.2	14.6406	0.000000	392.004	384.621	0.000000
	37.3	14.6405	0.000000	393.004	385.657	0.000000
	37.4	14.6403	0.000000	394.004	386.711	0.000000
	37.5	14.64	0.000000	395.004	387.748	0.000000
	37.6	14.6395	0.000000	396.004	388.716	0.000000
	37.7	14.6396	0.000000	397.004	389.63	0.000000
	37.8	14.6395	0.000000	398.004	390.617	0.000000
	37.9	14.6394	0.000000	399.004	391.636	0.000000
	38	14.6392	0.000000	400.004	392.631	0.000000
	38.1	14.6393	0.000000	401.004	393.622	0.000000
	38.2	14.6392	0.000000	402.004	394.593	0.000000
	38.3	14.6389	0.000000	403.004	395.573	0.000000
	38.4	14.6387	0.000000	404.004	396.544	0.000000
	38.5	14.6386	0.000000	405.004	397.534	0.000000
	38.6	14.6384	0.000000	406.004	398.487	0.000000
	38.7	14.6382	0.000000	407.004	399.426	0.000000
	38.8	14.6382	0.000000	408.004	400.385	0.000000
	38.9	14.6379	0.000000	409.004	401.369	0.000000
	39	14.6378	0.000000	410.004	402.354	0.000000
	39.1	14.6377	0.000000	411.004	403.362	0.000000
	39.2	14.6376	0.000000	412.004	404.389	0.000000
	39.3	14.6374	0.000000	413.004	405.41	0.000000
	39.4	14.6372	0.000000	414.004	406.369	0.000000
	39.5	14.637	0.000000	415.004	407.413	0.000000
	39.6	14.6369	0.000000	416.004	408.378	0.000000
	39.7	14.6367	0.000000	417.004	409.354	0.000000
	39.8	14.6368	0.000000	418.004	410.353	0.000000
	39.9	14.6364	0.000000	419.004	411.412	0.000000
	40	14.6362	0.000000	420.004	412.444	0.000000
	40.1	14.6361	0.000000	421.004	413.489	0.000000
	40.2	14.636	0.000000	422.004	414.423	0.000000
	40.3	14.6359	0.000000	423.004	415.443	0.000000
	40.4	14.6358	0.000000	424.004	416.43	0.000000
	40.5	14.6356	0.000000	425.004	417.514	0.000000
	40.6	14.6354	0.000000	426.004	418.485	0.000000
	40.7	14.6354	0.000000	427.004	419.457	0.000000
	40.8	14.6351	0.000000	428.004	420.422	0.000000
	40.9	14.6349	0.000000	429.004	421.414	0.000000
	41	14.6348	0.000000	430.004	422.358	0.000000
	41.1	14.6348	0.000000	431.004	423.366	0.000000
	41.2	14.6344	0.000000	432.004	424.421	0.000000
	41.3	14.6344	0.000000	433.004	425.429	0.000000
	41.4	14.6342	0.000000	434.004	426.428	0.000000
	41.5	14.6339	0.000000	435.004	427.401	0.000000
	41.6	14.6339	0.000000	436.004	428.337	0.000000
	41.7	14.6338	0.000000	437.004	429.327	0.000000
	41.8	14.6337	0.000000	438.004	430.324	0.000000
	41.9	14.6337	0.000000	439.004	431.259	0.000000
	42	14.6334	0.000000	440.004	432.262	0.000000
	42.1	14.6333	0.000000	441.004	433.243	0.000000
	42.2	14.6332	0.000000	442.004	434.225	0.000000
	42.3	14.6331	0.000000	443.004	435.238	0.000000
	42.4	14.633	0.000000	444.004	436.238	0.000000
	42.5	14.6327	0.000000	445.004	437.229	0.000000
	42.6	14.6324	0.000000	446.004	438.265	0.000000
	42.7	14.6322	0.000000	447.004	439.228	0.000000
	42.8	14.6321	0.000000	448.004	440.221	0.000000
	42.9	14.632	0.000000	449.004	441.212	0.000000
	43	14.6317	0.000000	450.004	442.188	0.000000
	43.1	14.6315	0.000000	451.004	443.229	0.000000
	43.2	14.6314	0.000000	452.004	444.189	0.000000
	43.3	14.6311	0.000000	453.004	445.168	0.000000
	43.4	14.6311	0.000000	454.004	446.205	0.000000
	43.5	14.631	0.000000	455.004	447.166	0.000000
	43.6	14.631	0.000000	456.004	448.139	0.000000
	43.7	14.6308	0.000000	457.004	449.091	0.000000
	43.8	14.6307	0.000000	458.004	450.064	0.000000
	43.9	14.6305	0.000000	459.004	451.116	0.000000
	44	14.6304	0.000000	460.004	452.161	0.000000
	44.1	14.6301	0.000000	461.004	453.182	0.000000
	44.2	14.6298	0.000000	462.004	454.164	0.000000
	44.3	14.6296	0.000000	463.004	455.128	0.000000
	44.4	14.6292	0.000000	464.004	456.064	0.000000
	44.5	14.6295	0.000000	465.004	457.025	0.000000
	44.6	14.6292	0.000000	466.004	458.036	0.000000
	44.7	14.6289	0.000000	467.004	459.026	0.000000
	44.8	14.6288	0.000000	468.004	460.007	0.000000
	44.9	14.6287	0.000000	469.004	461.013	0.000000
	45	14.6283	0.000000	470.004	462.027	0.000000
	45.1	14.6282	0.000000	471.004	463.001	0.000000
	45.2	14.6282	0.000000	472.004	464.027	0.000000
	45.3	14.6279	0.000000	473.004	465.025	0.000000
	45.4	14.6274	0.000000	474.004	466.03	0.000000
	45.5	14.6274	0.000000	475.004	467.068	0.000000
	45.6	14.6271	0.000000	476.004	467.999	0.000000
	45.7	14.6267	0.000000	477.004	468.988	0.000000
	45.8	14.6267	0.000000	478.004	469.921	0.000000
	45.9	14.6265	0.000000	479.004	470.919	0.000000
	46	14.6265	0.000000	480.004	471.918	0.000000
	46.1	14.626	0.000000	481.004	472.872	0.000000
	46.2	14.6261	0.000000	482.004	473.874	0.000000
	46.3	14.6255	0.000000	483.004	474.897	0.000000
	46.4	14.6254	0.000000	484.004	475.873	0.000000
	46.5	14.6253	0.000000	485.004	476.871	0.000000
	46.6	14.625	0.000000	486.004	477.896	0.000000
	46.7	14.6248	0.000000	487.004	478.945	0.000000
	46.8	14.6245	0.000000	488.004	479.995	0.000000
	46.9	14.6242	0.000000	489.004	480.995	0.000000
	47	14.6242	0.000000	490.004	482.031	0.000000
	47.1	14.6237	0.000000	491.004	483.039	0.000000
	47.2	14.6235	0.000000	492.004	483.996	0.000000
	47.3	14.6233	0.000000	493.004	485.041	0.000000
	47.4	14.6229	0.000000	494.004	486.061	0.000000
	47.5	14.6227	0.000000	495.004	487.017	0.000000
	47.6	14.6225	0.000000	496.004	487.978	0.000000
	47.7	14.6223	0.000000	497.004	489.008	0.000000
	47.8	14.6221	0.000000	498.004	490.039	0.000000
	47.9	14.6219	0.000000	499.004	491.019	0.000000
	48	14.6216	0.000000	500.004	491.999	0.000000
	48.1	14.6213	0.000000	501.004	493.018	0.000000
	48.2	14.621	0.000000	502.004	493.97	0.000000
	48.3	14.6208	0.000000	503.004	494.957	0.000000
	48.4	14.6205	0.000000	504.004	495.95	0.000000
	48.5	14.6205	0.000000	505.004	496.882	0.000000
	48.6	14.6202	0.000000	506.004	497.877	0.000000
	48.7	14.6197	0.000000	507.004	498.897	0.000000
	48.8	14.6198	0.000000	508.004	499.959	0.000000
	48.9	14.6193	0.000000	509.004	500.927	0.000000
	49	14.6189	0.000000	510.004	501.944	0.000000
	49.1	14.6187	0.000000	511.004	502.969	0.000000
	49.2	14.6184	0.000000	512.004	503.981	0.000000
	49.3	14.6181	0.000000	513.004	505.053	0.000000
	49.4	14.6179	0.000000	514.004	506.074	0.000000
	49.5	14.6177	0.000000	515.004	507.055	0.000000
	49.6	14.6172	0.000000	516.004	508.017	0.000000
	49.7	14.6169	0.000000	517.004	509.013	0.000000
	49.8	14.6169	0.000000	518.004	510.042	0.000000
	49.9	14.6165	0.000000	519.004	510.986	0.000000
	50	14.616	0.000000	520.004	511.97	0.000000
	50.1	14.6158	0.000000	521.004	512.962	0.000000
	50.2	14.6155	0.000000	522.004	513.94	0.000000
	50.3	14.6152	0.000000	523.004	514.93	0.000000
	50.4	14.615	0.000000	524.004	515.938	0.000000
	50.5	14.6147	0.000000	525.004	516.953	0.000000
	50.6	14.6144	0.000000	526.004	517.977	0.000000
	50.7	14.6141	0.000000	527.004	518.996	0.000000
	50.8	14.6139	0.000000	528.004	520.04	0.000000
	50.9	14.6137	0.000000	529.004	521.036	0.000000
	51	14.6132	0.000000	530.004	522.147	0.000000
	51.1	14.6131	0.000000	531.004	523.109	0.000000
	51.2	14.6126	0.000000	532.004	524.14	0.000000
	51.3	14.6124	0.000000	533.004	525.127	0.000000
	51.4	14.6121	0.000000	534.004	526.17	0.000000
	51.5	14.6118	0.000000	535.004	527.198	0.000000
	51.6	14.6115	0.000000	536.004	528.197	0.000000
	51.7	14.6111	0.000000	537.004	529.295	0.000000
	51.8	14.6107	0.000000	538.004	530.329	0.000000
	51.9	14.6103	0.000000	539.004	531.345	0.000000
	52	14.6101	0.000000	540.004	532.393	0.000000
	52.1	14.6097	0.000000	541.004	533.366	0.000000
	52.2	14.6092	0.000000	542.004	534.318	0.000000
	52.3	14.6094	0.000000	543.004	535.312	0.000000
	52.4	14.6091	0.000000	544.004	536.321	0.000000
	52.5	14.6087	0.000000	545.004	537.331	0.000000
	52.6	14.6085	0.000000	546.004	538.301	0.000000
	52.7	14.6082	0.000000	547.004	539.317	0.000000
	52.8	14.6077	0.000000	548.004	540.292	0.000000
	52.9	14.6077	0.000000	549.004	541.346	0.000000
	53	14.6073	0.000000	550.004	542.374	0.000000
	53.1	14.6067	0.000000	551.004	543.374	0.000000
	53.2	14.6063	0.000000	552.004	544.319	0.000000
	53.3	14.6064	0.000000	553.004	545.35	0.000000
	53.4	14.606	0.000000	554.004	546.422	0.000000
	53.5	14.6057	0.000000	555.004	547.408	0.000000
	53.6	14.6054	0.000000	556.004	548.414	0.000000
	53.7	14.6052	0.000000	557.004	549.413	0.000000
	53.8	14.6047	0.000000	558.004	550.407	0.000000
	53.9	14.6044	0.000000	559.004	551.393	0.000000
	54	14.6041	0.000000	560.004	552.338	0.000000
	54.1	14.6039	0.000000	561.004	553.365	0.000000
	54.2	14.6035	0.000000	562.004	554.352	0.000000
	54.3	14.6028	0.000000	563.004	555.324	0.000000
	54.4	14.6026	0.000000	564.004	556.317	0.000000
	54.5	14.6024	0.000000	565.004	557.302	0.000000
	54.6	14.602	0.000000	566.004	558.242	0.000000
	54.7	14.6013	0.000000	567.004	559.319	0.000000
	54.8	14.6015	0.000000	568.004	560.279	0.000000
	54.9	14.601	0.000000	569.004	561.328	0.000000
	55	14.6006	0.000000	570.004	562.379	0.000000
	55.1	14.6	0.000000	571.004	563.405	0.000000
	55.2	14.5999	0.000000	572.004	564.445	0.000000
	55.3	14.5995	0.000000	573.004	565.493	0.000000
	55.4	14.5992	0.000000	574.004	566.574	0.000000
	55.5	14.5985	0.000000	575.004	567.532	0.000000
	55.6	14.5979	0.000000	576.004	568.552	0.000000
	55.7	14.598	0.000000	577.004	569.529	0.000000
	55.8	14.5975	0.000000	578.004	570.556	0.000000
	55.9	14.5968	0.000000	579.004	571.603	0.000000
	56	14.5964	0.000000	580.004	572.575	0.000000
	56.1	14.5959	0.000000	581.004	573.604	0.000000
	56.2	14.5954	0.000000	582.004	574.662	0.000000
	56.3	14.595	0.000000	583.004	575.606	0.000000
	56.4	14.5946	0.000000	584.004	576.599	0.000000
	56.5	14.5941	0.000000	585.004	577.628	0.000000
	56.6	14.5934	0.000000	586.004	578.645	0.000000
	56.7	14.5929	0.000000	587.004	579.706	0.000000
	56.8	14.5922	0.000000	588.004	580.705	0.000000
	56.9	14.5917	0.000000	589.004	581.708	0.000000
	57	14.5909	0.000000	590.004	582.698	0.000000
	57.1	14.5904	0.000000	591.004	583.74	0.000000
	57.2	14.5899	0.000000	592.004	584.721	0.000000
	57.3	14.5893	0.000000	593.004	585.695	0.000000
	57.4	14.5886	0.000000	594.004	586.724	0.000000
	57.5	14.5879	0.000000	595.004	587.703	0.000000
	57.6	14.5871	0.000000	596.004	588.767	0.000000
	57.7	14.5863	0.000000	597.004	589.802	0.000000
	57.8	14.5854	0.000000	598.004	590.874	0.000000
	57.9	14.5847	0.000000	599.004	591.901	0.000000
	58	14.5839	0.000000	600.004	592.945	0.000000
	58.1	14.583	0.000000	601.004	593.967	0.000000
	58.2	14.582	0.000000	602.004	594.968	0.000000
	58.3	14.5812	0.000000	603.004	595.99	0.000000
	58.4	14.5804	0.000000	604.004	596.957	0.000000
	58.5	14.5792	0.000000	605.004	597.913	0.000000
	58.6	14.5785	0.000000	606.004	598.92	0.000000
	58.7	14.5776	0.000000	607.004	599.954	0.000000
	58.8	14.5769	0.000000	608.004	600.935	0.000000
	58.9	14.5755	0.000000	609.004	601.943	0.000000
	59	14.5748	0.000000	610.004	602.903	0.000000
	59.1	14.5735	0.000000	611.004	603.918	0.000000
	59.2	14.5723	0.000000	612.004	604.938	0.000000
	59.3	14.5713	0.000000	613.004	605.911	0.000000
	59.4	14.5703	0.000000	614.004	606.925	0.000000
	59.5	14.5691	0.000000	615.004	607.961	0.000000
	59.6	14.5679	0.000000	616.004	608.96	0.000000
	59.7	14.5664	0.000000	617.004	609.999	0.000000
	59.8	14.5655	0.000000	618.004	610.977	0.000000
	59.9	14.5643	0.000000	619.004	611.959	0.000000
	60	14.5632	0.000000	620.004	612.96	0.000000
	60.1	14.562	0.000000	621.004	614.019	0.000000
	60.2	14.5611	0.000000	622.004	615.023	0.000000
	60.3	14.5595	0.000000	623.004	616.009	0.000000
	60.4	14.5583	0.000000	624.004	616.97	0.000000
	60.5	14.5573	0.000000	625.004	618.009	0.000000
	60.6	14.5559	0.000000	626.004	618.987	0.000000
	60.7	14.5546	0.000000	627.004	619.987	0.000000
	60.8	14.5535	0.000000	628.004	621.02	0.000000
	60.9	14.5522	0.000000	629.004	622.013	0.000000
	61	14.551	0.000000	630.004	623.066	0.000000
	61.1	14.5498	0.000000	631.004	624.179	0.000000
	61.2	14.5485	0.000000	632.004	625.261	0.000000
	61.3	14.5475	0.000000	633.004	626.269	0.000000
	61.4	14.5464	0.000000	634.004	627.365	0.000000
	61.5	14.5454	0.000000	635.004	628.399	0.000000
	61.6	14.5443	0.000000	636.004	629.452	0.000000
	61.7	14.5434	0.000000	637.004	630.527	0.000000
	61.8	14.5425	0.000000	638.004	631.577	0.000000
	61.9	14.5416	0.000000	639.004	632.573	0.000000
	62	14.541	0.000000	640.004	633.594	0.000000
	62.1	14.5398	0.000000	641.004	634.742	0.000000
	62.2	14.5391	0.000000	642.004	635.79	0.000000
	62.3	14.5383	0.000000	643.004	636.845	0.000000
	62.4	14.5376	0.000000	644.004	637.873	0.000000
	62.5	14.5372	0.000000	645.004	638.9	0.000000
	62.6	14.5366	0.000000	646.004	639.913	0.000000
	62.7	14.5359	0.000000	647.004	640.876	0.000000
	62.8	14.5356	0.000000	648.004	641.814	0.000000
	62.9	14.535	0.000000	649.004	642.809	0.000000
	63	14.5346	0.000000	650.004	643.847	0.000000
	63.1	14.5344	0.000000	651.004	644.838	0.000000
	63.2	14.5341	0.000000	652.004	645.809	0.000000
	63.3	14.5338	0.000000	653.004	646.815	0.000000
	63.4	14.5337	0.000000	654.004	647.857	0.000000
	63.5	14.5332	0.000000	655.004	648.938	0.000000
	63.6	14.533	0.000000	656.004	650.044	0.000000
	63.7	14.5329	0.000000	657.004	651.084	0.000000
	63.8	14.5327	0.000000	658.004	652.106	0.000000
	63.9	14.5324	0.000000	659.004	653.195	0.000000
	64	14.5321	0.000000	660.004	654.267	0.000000
	64.1	14.5319	0.000000	661.004	655.298	0.000000
	64.2	14.5322	0.000000	662.004	656.275	0.000000
	64.3	14.532	0.000000	663.004	657.277	0.000000
	64.4	14.5318	0.000000	664.004	658.317	0.000000
	64.5	14.5316	0.000000	665.004	659.351	0.000000
	64.6	14.5315	0.000000	666.004	660.408	0.000000
	64.7	14.5314	0.000000	667.004	661.475	0.000000
	64.8	14.5315	0.000000	668.004	662.562	0.000000
	64.9	14.5311	0.000000	669.004	663.619	0.000000
	65	14.5312	0.000000	670.004	664.615	0.000000
	65.1	14.5309	0.000000	671.004	665.589	0.000000
	65.2	14.5309	0.000000	672.004	666.548	0.000000
	65.3	14.5305	0.000000	673.004	667.5	0.000000
	65.4	14.5303	0.000000	674.004	668.401	0.000000
	65.5	14.5298	0.000000	675.004	669.336	0.000000
	65.6	14.53	0.000000	676.004	670.293	0.000000
	65.7	14.5297	0.000000	677.004	671.281	0.000000
	65.8	14.5296	0.000000	678.004	672.232	0.000000
	65.9	14.5295	0.000000	679.004	673.186	0.000000
	66	14.5295	0.000000	680.004	674.2	0.000000
	66.1	14.5293	0.000000	681.004	675.162	0.000000
	66.2	14.5292	0.000000	682.004	676.149	0.000000
	66.3	14.529	0.000000	683.004	677.088	0.000000
	66.4	14.5288	0.000000	684.004	678.045	0.000000
	66.5	14.5289	0.000000	685.004	679.064	0.000000
	66.6	14.5288	0.000000	686.004	680.016	0.000000
	66.7	14.5286	0.000000	687.004	680.942	0.000000
	66.8	14.5283	0.000000	688.004	681.91	0.000000
	66.9	14.5282	0.000000	689.004	682.901	0.000000
	67	14.528	0.000000	690.004	683.912	0.000000
	67.1	14.528	0.000000	691.004	684.899	0.000000
	67.2	14.5281	0.000000	692.004	685.9	0.000000
	67.3	14.5278	0.000000	693.004	686.792	0.000000
	67.4	14.5277	0.000000	694.004	687.717	0.000000
	67.5	14.5277	0.000000	695.004	688.688	0.000000
	67.6	14.5275	0.000000	696.004	689.743	0.000000
	67.7	14.5276	0.000000	697.004	690.744	0.000000
	67.8	14.5274	0.000000	698.004	691.649	0.000000
	67.9	14.5272	0.000000	699.004	692.672	0.000000
	68	14.5271	0.000000	700.004	693.611	0.000000
	68.1	14.5265	0.000000	701.004	694.552	0.000000
	68.2	14.5268	0.000000	702.004	695.537	0.000000
	68.3	14.5269	0.000000	703.004	696.54	0.000000
	68.4	14.5267	0.000000	704.004	697.494	0.000000
	68.5	14.5269	0.000000	705.004	698.467	0.000000
	68.6	14.5266	0.000000	706.004	699.483	0.000000
	68.7	14.5259	0.000000	707.004	700.504	0.000000
	68.8	14.526	0.000000	708.004	701.525	0.000000
	68.9	14.5259	0.000000	709.004	702.501	0.000000
	69	14.5256	0.000000	710.004	703.471	0.000000
	69.1	14.5255	0.000000	711.004	704.395	0.000000
	69.2	14.5253	0.000000	712.004	705.313	0.000000
	69.3	14.5249	0.000000	713.004	706.357	0.000000
	69.4	14.525	0.000000	714.004	707.349	0.000000
	69.5	14.5249	0.000000	715.004	708.321	0.000000
	69.6	14.525	0.000000	716.004	709.264	0.000000
	69.7	14.5246	0.000000	717.004	710.374	0.000000
	69.8	14.5244	0.000000	718.004	711.491	0.000000
	69.9	14.5246	0.000000	719.004	712.613	0.000000
	70	14.5244	0.000000	720.004	713.765	0.000000
	70.1	14.5243	0.000000	721.004	714.83	0.000000
	70.2	14.5243	0.000000	722.004	715.977	0.000000
	70.3	14.5239	0.000000	723.004	717.136	0.000000
	70.4	14.5239	0.000000	724.004	718.212	0.000000
	70.5	14.5238	0.000000	725.004	719.265	0.000000
	70.6	14.5238	0.000000	726.004	720.407	0.000000
	70.7	14.5237	0.000000	727.004	721.451	0.000000
	70.8	14.5235	0.000000	728.004	722.489	0.000000
	70.9	14.5238	0.000000	729.004	723.529	0.000000
	71	14.5235	0.000000	730.004	724.64	0.000000
	71.1	14.5233	0.000000	731.004	725.731	0.000000
	71.2	14.523	0.000000	732.004	726.821	0.000000
	71.3	14.5231	0.000000	733.004	727.968	0.000000
	71.4	14.5232	0.000000	734.004	729.028	0.000000
	71.5	14.5229	0.000000	735.004	730.196	0.000000
	71.6	14.5228	0.000000	736.004	731.254	0.000000
	71.7	14.5231	0.000000	737.004	732.329	0.000000
	71.8	14.5228	0.000000	738.004	733.312	0.000000
	71.9	14.5225	0.000000	739.004	734.397	0.000000
	72	14.5225	0.000000	740.004	735.492	0.000000
	72.1	14.5225	0.000000	741.004	736.597	0.000000
	72.2	14.5224	0.000000	742.004	737.69	0.000000
	72.3	14.5222	0.000000	743.004	738.794	0.000000
	72.4	14.5222	0.000000	744.004	739.947	0.000000
	72.5	14.5218	0.000000	745.004	741.061	0.000000
	72.6	14.522	0.000000	746.004	742.163	0.000000
	72.7	14.5219	0.000000	747.004	743.313	0.000000
	72.8	14.5216	0.000000	748.004	744.42	0.000000
	72.9	14.5213	0.000000	749.004	745.493	0.000000
	73	14.5216	0.000000	750.004	746.505	0.000000
	73.1	14.5213	0.000000	751.004	747.63	0.000000
	73.2	14.5212	0.000000	752.004	748.715	0.000000
	73.3	14.5211	0.000000	753.004	749.829	0.000000
	73.4	14.5211	0.000000	754.004	750.918	0.000000
	73.5	14.521	0.000000	755.004	752.019	0.000000
	73.6	14.5211	0.000000	756.004	753.092	0.000000
	73.7	14.5209	0.000000	757.004	754.117	0.000000
	73.8	14.5209	0.000000	758.004	755.103	0.000000
	73.9	14.5207	0.000000	759.004	756.192	0.000000
	74	14.5207	0.000000	760.004	757.26	0.000000
	74.1	14.5205	0.000000	761.004	758.297	0.000000
	74.2	14.5204	0.000000	762.004	759.379	0.000000
	74.3	14.5201	0.000000	763.004	760.451	0.000000
	74.4	14.5201	0.000000	764.004	761.498	0.000000
	74.5	14.5197	0.000000	765.004	762.47	0.000000
	74.6	14.5199	0.000000	766.004	763.467	0.000000
	74.7	14.5198	0.000000	767.004	764.541	0.000000
	74.8	14.5197	0.000000	768.004	765.57	0.000000
	74.9	14.5197	0.000000	769.004	766.565	0.000000
	75	14.5194	0.000000	770.004	767.513	0.000000
	75.1	14.5193	0.000000	771.004	768.536	0.000000
	75.2	14.5193	0.000000	772.004	769.586	0.000000
	75.3	14.5192	0.000000	773.004	770.558	0.000000
	75.4	14.5191	0.000000	774.004	771.55	0.000000
	75.5	14.519	0.000000	775.004	772.53	0.000000
	75.6	14.5188	0.000000	776.004	773.569	0.000000
	75.7	14.5188	0.000000	777.004	774.587	0.000000
	75.8	14.5186	0.000000	778.004	775.64	0.000000
	75.9	14.5183	0.000000	779.004	776.743	0.000000
	76	14.5181	0.000000	780.004	777.798	0.000000
	76.1	14.518	0.000000	781.004	778.827	0.000000
	76.2	14.5181	0.000000	782.004	779.806	0.000000
	76.3	14.5179	0.000000	783.004	780.812	0.000000
	76.4	14.5178	0.000000	784.004	781.899	0.000000
	76.5	14.5178	0.000000	785.004	782.972	0.000000
	76.6	14.5179	0.000000	786.004	784.05	0.000000
	76.7	14.5178	0.000000	787.004	785.058	0.000000
	76.8	14.5174	0.000000	788.004	786.05	0.000000
	76.9	14.5174	0.000000	789.004	787.133	0.000000
	77	14.5174	0.000000	790.004	788.134	0.000000
	77.1	14.5175	0.000000	791.004	789.105	0.000000
	77.2	14.5172	0.000000	792.004	790.139	0.000000
	77.3	14.517	0.000000	793.004	791.175	0.000000
	77.4	14.5168	0.000000	794.004	792.192	0.000000
	77.5	14.5168	0.000000	795.004	793.219	0.000000
	77.6	14.5167	0.000000	796.004	794.196	0.000000
	77.7	14.5163	0.000000	797.004	795.16	0.000000
	77.8	14.5162	0.000000	798.004	796.165	0.000000
	77.9	14.5163	0.000000	799.004	797.187	0.000000
	78	14.5161	0.000000	800.004	798.218	0.000000
	78.1	14.5159	0.000000	801.004	799.191	0.000000
	78.2	14.5155	0.000000	802.004	800.217	0.000000
	78.3	14.5155	0.000000	803.004	801.25	0.000000
	78.4	14.5156	0.000000	804.004	802.26	0.000000
	78.5	14.5154	0.000000	805.004	803.288	0.000000
	78.6	14.5154	0.000000	806.004	804.323	0.000000
	78.7	14.5151	0.000000	807.004	805.369	0.000000
	78.8	14.5149	0.000000	808.004	806.41	0.000000
	78.9	14.5148	0.000000	809.004	807.505	0.000000
	79	14.5148	0.000000	810.004	808.498	0.000000
	79.1	14.5146	0.000000	811.004	809.541	0.000000
	79.2	14.5144	0.000000	812.004	810.596	0.000000
	79.3	14.5143	0.000000	813.004	811.525	0.000000
	79.4	14.514	0.000000	814.004	812.455	0.000000
	79.5	14.5139	0.000000	815.004	813.45	0.000000
	79.6	14.5139	0.000000	816.004	814.53	0.000000
	79.7	14.5138	0.000000	817.004	815.583	0.000000
	79.8	14.5135	0.000000	818.004	816.675	0.000000
	79.9	14.5136	0.000000	819.004	817.69	0.000000
	80	14.5135	0.000000	820.004	818.789	0.000000
	80.1	14.5134	0.000000	821.004	819.822	0.000000
	80.2	14.5133	0.000000	822.004	820.817	0.000000
	80.3	14.5127	0.000000	823.004	821.794	0.000000
	80.4	14.5128	0.000000	824.004	822.863	0.000000
	80.5	14.5126	0.000000	825.004	823.873	0.000000
	80.6	14.5124	0.000000	826.004	824.848	0.000000
	80.7	14.5125	0.000000	827.004	825.942	0.000000
	80.8	14.5123	0.000000	828.004	826.973	0.000000
	80.9	14.5121	0.000000	829.004	827.967	0.000000
	81	14.5119	0.000000	830.004	828.995	0.000000
	81.1	14.5117	0.000000	831.004	829.979	0.000000
	81.2	14.5117	0.000000	832.004	830.996	0.000000
	81.3	14.5114	0.000000	833.004	832.01	0.000000
	81.4	14.511	0.000000	834.004	833.051	0.000000
	81.5	14.5109	0.000000	835.004	834.01	0.000000
	81.6	14.5104	0.000000	836.004	834.905	0.000000
	81.7	14.5103	0.000000	837.004	835.894	0.000000
	81.8	14.51	0.000000	838.004	836.923	0.000000
	81.9	14.5101	0.000000	839.004	837.907	0.000000
	82	14.5099	0.000000	840.004	838.886	0.000000
	82.1	14.5097	0.000000	841.004	839.864	0.000000
	82.2	14.5093	0.000000	842.004	840.791	0.000000
	82.3	14.5094	0.000000	843.004	841.715	0.000000
	82.4	14.5093	0.000000	844.004	842.727	0.000000
	82.5	14.5091	0.000000	845.004	843.759	0.000000
	82.6	14.5089	0.000000	846.004	844.753	0.000000
	82.7	14.5085	0.000000	847.004	845.792	0.000000
	82.8	14.5084	0.000000	848.004	846.815	0.000000
	82.9	14.5084	0.000000	849.004	847.84	0.000000
	83	14.5083	0.000000	850.004	848.789	0.000000
	83.1	14.5081	0.000000	851.004	849.736	0.000000
	83.2	14.5078	0.000000	852.004	850.717	0.000000
	83.3	14.5078	0.000000	853.004	851.673	0.000000
	83.4	14.5074	0.000000	854.004	852.597	0.000000
	83.5	14.5076	0.000000	855.004	853.595	0.000000
	83.6	14.5072	0.000000	856.004	854.555	0.000000
	83.7	14.5072	0.000000	857.004	855.538	0.000000
	83.8	14.507	0.000000	858.004	856.513	0.000000
	83.9	14.5066	0.000000	859.004	857.514	0.000000
	84	14.5066	0.000000	860.004	858.477	0.000000
	84.1	14.5065	0.000000	861.004	859.407	0.000000
	84.2	14.5063	0.000000	862.004	860.4	0.000000
	84.3	14.5061	0.000000	863.004	861.336	0.000000
	84.4	14.5058	0.000000	864.004	862.272	0.000000
	84.5	14.5055	0.000000	865.004	863.271	0.000000
	84.6	14.5055	0.000000	866.004	864.277	0.000000
	84.7	14.5055	0.000000	867.004	865.32	0.000000
	84.8	14.5052	0.000000	868.004	866.299	0.000000
	84.9	14.5048	0.000000	869.004	867.351	0.000000
	85	14.5048	0.000000	870.004	868.334	0.000000
	85.1	14.5046	0.000000	871.004	869.341	0.000000
	85.2	14.5045	0.000000	872.004	870.264	0.000000
	85.3	14.5046	0.000000	873.004	871.253	0.000000
	85.4	14.5044	0.000000	874.004	872.212	0.000000
	85.5	14.5042	0.000000	875.004	873.209	0.000000
	85.6	14.5042	0.000000	876.004	874.215	0.000000
	85.7	14.5039	0.000000	877.004	875.212	0.000000
	85.8	14.5036	0.000000	878.004	876.205	0.000000
	85.9	14.5033	0.000000	879.004	877.166	0.000000
	86	14.5034	0.000000	880.004	878.202	0.000000
	86.1	14.5031	0.000000	881.004	879.216	0.000000
	86.2	14.5031	0.000000	882.004	880.188	0.000000
	86.3	14.5029	0.000000	883.004	881.221	0.000000
	86.4	14.5025	0.000000	884.004	882.152	0.000000
	86.5	14.5024	0.000000	885.004	883.098	0.000000
	86.6	14.5023	0.000000	886.004	884.073	0.000000
	86.7	14.5023	0.000000	887.004	884.996	0.000000
	86.8	14.5022	0.000000	888.004	886.009	0.000000
	86.9	14.502	0.000000	889.004	887.005	0.000000
	87	14.5017	0.000000	890.004	887.957	0.000000
	87.1	14.5013	0.000000	891.004	888.987	0.000000
	87.2	14.5013	0.000000	892.004	889.972	0.000000
	87.3	14.5012	0.000000	893.004	890.965	0.000000
	87.4	14.5007	0.000000	894.004	891.948	0.000000
	87.5	14.5007	0.000000	895.004	892.991	0.000000
	87.6	14.5006	0.000000	896.004	894.007	0.000000
	87.7	14.5006	0.000000	897.004	894.993	0.000000
	87.8	14.5005	0.000000	898.004	896.025	0.000000
	87.9	14.5004	0.000000	899.004	897.117	0.000000
	87.9833	14.5005	0.000000	899.837	897.922	0.000000