File: FTIR/silica_fume.csv
Created as New Dataset,Sample 004 By whitece Date Friday, December 06 2024
cm-1,%T
4000.00,98.53
3997.00,98.53
3994.00,98.53
3991.00,98.54
3988.00,98.52
3985.00,98.51
3982.00,98.51
3979.00,98.50
3976.00,98.46
3973.00,98.44
3970.00,98.48
3967.00,98.53
3964.00,98.54
3961.00,98.51
3958.00,98.50
3955.00,98.53
3952.00,98.57
3949.00,98.54
3946.00,98.48
3943.00,98.49
3940.00,98.53
3937.00,98.49
3934.00,98.44
3931.00,98.48
3928.00,98.53
3925.00,98.54
3922.00,98.50
3919.00,98.43
3916.00,98.39
3913.00,98.38
3910.00,98.41
3907.00,98.48
3904.00,98.53
3901.00,98.49
3898.00,98.45
3895.00,98.44
3892.00,98.43
3889.00,98.43
3886.00,98.44
3883.00,98.44
3880.00,98.46
3877.00,98.48
3874.00,98.48
3871.00,98.45
3868.00,98.40
3865.00,98.40
3862.00,98.46
3859.00,98.47
3856.00,98.46
3853.00,98.48
3850.00,98.47
3847.00,98.42
3844.00,98.39
3841.00,98.42
3838.00,98.45
3835.00,98.45
3832.00,98.45
3829.00,98.42
3826.00,98.37
3823.00,98.34
3820.00,98.39
3817.00,98.47
3814.00,98.53
3811.00,98.52
3808.00,98.46
3805.00,98.39
3802.00,98.38
3799.00,98.42
3796.00,98.41
3793.00,98.36
3790.00,98.37
3787.00,98.42
3784.00,98.42
3781.00,98.38
3778.00,98.34
3775.00,98.34
3772.00,98.35
3769.00,98.32
3766.00,98.29
3763.00,98.27
3760.00,98.28
3757.00,98.30
3754.00,98.35
3751.00,98.38
3748.00,98.36
3745.00,98.31
3742.00,98.30
3739.00,98.32
3736.00,98.37
3733.00,98.40
3730.00,98.37
3727.00,98.35
3724.00,98.38
3721.00,98.41
3718.00,98.39
3715.00,98.32
3712.00,98.26
3709.00,98.23
3706.00,98.23
3703.00,98.25
3700.00,98.26
3697.00,98.21
3694.00,98.15
3691.00,98.16
3688.00,98.22
3685.00,98.25
3682.00,98.24
3679.00,98.20
3676.00,98.15
3673.00,98.08
3670.00,97.97
3667.00,97.89
3664.00,97.89
3661.00,97.97
3658.00,98.03
3655.00,98.03
3652.00,97.99
3649.00,97.94
3646.00,97.91
3643.00,97.92
3640.00,97.94
3637.00,97.93
3634.00,97.95
3631.00,97.98
3628.00,98.00
3625.00,98.01
3622.00,98.04
3619.00,98.07
3616.00,98.09
3613.00,98.06
3610.00,98.02
3607.00,97.99
3604.00,97.94
3601.00,97.87
3598.00,97.84
3595.00,97.91
3592.00,97.99
3589.00,98.02
3586.00,97.97
3583.00,97.89
3580.00,97.82
3577.00,97.83
3574.00,97.89
3571.00,97.96
3568.00,97.98
3565.00,97.93
3562.00,97.89
3559.00,97.88
3556.00,97.87
3553.00,97.87
3550.00,97.89
3547.00,97.87
3544.00,97.82
3541.00,97.80
3538.00,97.81
3535.00,97.82
3532.00,97.78
3529.00,97.72
3526.00,97.71
3523.00,97.74
3520.00,97.79
3517.00,97.84
3514.00,97.87
3511.00,97.85
3508.00,97.81
3505.00,97.76
3502.00,97.71
3499.00,97.67
3496.00,97.65
3493.00,97.65
3490.00,97.71
3487.00,97.77
3484.00,97.75
3481.00,97.68
3478.00,97.67
3475.00,97.68
3472.00,97.66
3469.00,97.66
3466.00,97.71
3463.00,97.77
3460.00,97.79
3457.00,97.76
3454.00,97.70
3451.00,97.65
3448.00,97.62
3445.00,97.64
3442.00,97.68
3439.00,97.69
3436.00,97.68
3433.00,97.68
3430.00,97.66
3427.00,97.61
3424.00,97.60
3421.00,97.62
3418.00,97.63
3415.00,97.65
3412.00,97.70
3409.00,97.74
3406.00,97.71
3403.00,97.67
3400.00,97.66
3397.00,97.62
3394.00,97.54
3391.00,97.54
3388.00,97.63
3385.00,97.69
3382.00,97.64
3379.00,97.59
3376.00,97.63
3373.00,97.65
3370.00,97.65
3367.00,97.65
3364.00,97.68
3361.00,97.68
3358.00,97.64
3355.00,97.57
3352.00,97.55
3349.00,97.60
3346.00,97.63
3343.00,97.61
3340.00,97.58
3337.00,97.57
3334.00,97.58
3331.00,97.56
3328.00,97.56
3325.00,97.58
3322.00,97.62
3319.00,97.66
3316.00,97.65
3313.00,97.61
3310.00,97.57
3307.00,97.54
3304.00,97.53
3301.00,97.56
3298.00,97.60
3295.00,97.63
3292.00,97.65
3289.00,97.64
3286.00,97.58
3283.00,97.53
3280.00,97.52
3277.00,97.55
3274.00,97.58
3271.00,97.59
3268.00,97.60
3265.00,97.63
3262.00,97.64
3259.00,97.63
3256.00,97.62
3253.00,97.64
3250.00,97.64
3247.00,97.62
3244.00,97.59
3241.00,97.59
3238.00,97.63
3235.00,97.63
3232.00,97.58
3229.00,97.54
3226.00,97.57
3223.00,97.60
3220.00,97.61
3217.00,97.58
3214.00,97.55
3211.00,97.54
3208.00,97.56
3205.00,97.58
3202.00,97.58
3199.00,97.58
3196.00,97.61
3193.00,97.69
3190.00,97.75
3187.00,97.74
3184.00,97.72
3181.00,97.71
3178.00,97.70
3175.00,97.68
3172.00,97.66
3169.00,97.64
3166.00,97.63
3163.00,97.61
3160.00,97.60
3157.00,97.58
3154.00,97.61
3151.00,97.68
3148.00,97.73
3145.00,97.72
3142.00,97.67
3139.00,97.64
3136.00,97.64
3133.00,97.66
3130.00,97.69
3127.00,97.73
3124.00,97.69
3121.00,97.62
3118.00,97.62
3115.00,97.68
3112.00,97.72
3109.00,97.72
3106.00,97.70
3103.00,97.70
3100.00,97.72
3097.00,97.78
3094.00,97.79
3091.00,97.74
3088.00,97.68
3085.00,97.67
3082.00,97.70
3079.00,97.71
3076.00,97.69
3073.00,97.65
3070.00,97.66
3067.00,97.68
3064.00,97.71
3061.00,97.73
3058.00,97.75
3055.00,97.77
3052.00,97.76
3049.00,97.74
3046.00,97.73
3043.00,97.72
3040.00,97.74
3037.00,97.76
3034.00,97.78
3031.00,97.80
3028.00,97.80
3025.00,97.76
3022.00,97.74
3019.00,97.75
3016.00,97.74
3013.00,97.70
3010.00,97.67
3007.00,97.70
3004.00,97.77
3001.00,97.81
2998.00,97.80
2995.00,97.78
2992.00,97.78
2989.00,97.79
2986.00,97.78
2983.00,97.78
2980.00,97.80
2977.00,97.80
2974.00,97.81
2971.00,97.83
2968.00,97.86
2965.00,97.88
2962.00,97.86
2959.00,97.84
2956.00,97.83
2953.00,97.83
2950.00,97.84
2947.00,97.84
2944.00,97.83
2941.00,97.83
2938.00,97.82
2935.00,97.84
2932.00,97.88
2929.00,97.88
2926.00,97.86
2923.00,97.87
2920.00,97.89
2917.00,97.90
2914.00,97.90
2911.00,97.88
2908.00,97.88
2905.00,97.90
2902.00,97.91
2899.00,97.89
2896.00,97.84
2893.00,97.81
2890.00,97.82
2887.00,97.83
2884.00,97.82
2881.00,97.82
2878.00,97.83
2875.00,97.87
2872.00,97.91
2869.00,97.93
2866.00,97.91
2863.00,97.91
2860.00,97.94
2857.00,97.96
2854.00,97.94
2851.00,97.91
2848.00,97.91
2845.00,97.89
2842.00,97.83
2839.00,97.80
2836.00,97.82
2833.00,97.82
2830.00,97.79
2827.00,97.78
2824.00,97.81
2821.00,97.87
2818.00,97.89
2815.00,97.89
2812.00,97.88
2809.00,97.89
2806.00,97.90
2803.00,97.90
2800.00,97.90
2797.00,97.89
2794.00,97.89
2791.00,97.87
2788.00,97.87
2785.00,97.88
2782.00,97.92
2779.00,97.95
2776.00,97.95
2773.00,97.92
2770.00,97.90
2767.00,97.90
2764.00,97.90
2761.00,97.90
2758.00,97.91
2755.00,97.91
2752.00,97.88
2749.00,97.87
2746.00,97.86
2743.00,97.86
2740.00,97.85
2737.00,97.85
2734.00,97.86
2731.00,97.86
2728.00,97.86
2725.00,97.86
2722.00,97.86
2719.00,97.86
2716.00,97.86
2713.00,97.84
2710.00,97.82
2707.00,97.83
2704.00,97.87
2701.00,97.89
2698.00,97.89
2695.00,97.87
2692.00,97.85
2689.00,97.86
2686.00,97.89
2683.00,97.90
2680.00,97.89
2677.00,97.90
2674.00,97.91
2671.00,97.91
2668.00,97.86
2665.00,97.80
2662.00,97.75
2659.00,97.72
2656.00,97.71
2653.00,97.69
2650.00,97.66
2647.00,97.65
2644.00,97.67
2641.00,97.70
2638.00,97.72
2635.00,97.72
2632.00,97.72
2629.00,97.71
2626.00,97.68
2623.00,97.65
2620.00,97.65
2617.00,97.68
2614.00,97.72
2611.00,97.75
2608.00,97.75
2605.00,97.74
2602.00,97.74
2599.00,97.76
2596.00,97.77
2593.00,97.76
2590.00,97.77
2587.00,97.77
2584.00,97.73
2581.00,97.72
2578.00,97.76
2575.00,97.78
2572.00,97.76
2569.00,97.71
2566.00,97.70
2563.00,97.74
2560.00,97.79
2557.00,97.80
2554.00,97.79
2551.00,97.81
2548.00,97.80
2545.00,97.75
2542.00,97.75
2539.00,97.82
2536.00,97.84
2533.00,97.84
2530.00,97.88
2527.00,97.90
2524.00,97.86
2521.00,97.82
2518.00,97.83
2515.00,97.87
2512.00,97.87
2509.00,97.87
2506.00,97.87
2503.00,97.87
2500.00,97.88
2497.00,97.89
2494.00,97.90
2491.00,97.88
2488.00,97.86
2485.00,97.88
2482.00,97.89
2479.00,97.82
2476.00,97.76
2473.00,97.79
2470.00,97.83
2467.00,97.84
2464.00,97.86
2461.00,97.86
2458.00,97.85
2455.00,97.82
2452.00,97.81
2449.00,97.81
2446.00,97.78
2443.00,97.76
2440.00,97.78
2437.00,97.82
2434.00,97.84
2431.00,97.84
2428.00,97.81
2425.00,97.78
2422.00,97.79
2419.00,97.83
2416.00,97.87
2413.00,97.88
2410.00,97.88
2407.00,97.91
2404.00,97.92
2401.00,97.92
2398.00,97.95
2395.00,97.95
2392.00,97.92
2389.00,97.91
2386.00,97.95
2383.00,97.97
2380.00,97.97
2377.00,97.96
2374.00,97.94
2371.00,97.89
2368.00,97.85
2365.00,97.84
2362.00,97.84
2359.00,97.83
2356.00,97.82
2353.00,97.82
2350.00,97.83
2347.00,97.83
2344.00,97.81
2341.00,97.79
2338.00,97.77
2335.00,97.75
2332.00,97.71
2329.00,97.62
2326.00,97.47
2323.00,97.37
2320.00,97.41
2317.00,97.51
2314.00,97.58
2311.00,97.61
2308.00,97.59
2305.00,97.58
2302.00,97.58
2299.00,97.57
2296.00,97.52
2293.00,97.44
2290.00,97.37
2287.00,97.38
2284.00,97.42
2281.00,97.40
2278.00,97.39
2275.00,97.42
2272.00,97.47
2269.00,97.52
2266.00,97.53
2263.00,97.50
2260.00,97.49
2257.00,97.51
2254.00,97.52
2251.00,97.53
2248.00,97.57
2245.00,97.62
2242.00,97.63
2239.00,97.59
2236.00,97.61
2233.00,97.64
2230.00,97.61
2227.00,97.57
2224.00,97.57
2221.00,97.58
2218.00,97.56
2215.00,97.53
2212.00,97.52
2209.00,97.48
2206.00,97.46
2203.00,97.48
2200.00,97.51
2197.00,97.55
2194.00,97.62
2191.00,97.60
2188.00,97.47
2185.00,97.37
2182.00,97.40
2179.00,97.54
2176.00,97.67
2173.00,97.63
2170.00,97.32
2167.00,97.00
2164.00,97.04
2161.00,97.58
2158.00,98.19
2155.00,98.38
2152.00,98.22
2149.00,98.05
2146.00,97.98
2143.00,97.98
2140.00,98.01
2137.00,98.09
2134.00,98.18
2131.00,98.18
2128.00,98.10
2125.00,97.95
2122.00,97.80
2119.00,97.68
2116.00,97.62
2113.00,97.61
2110.00,97.59
2107.00,97.55
2104.00,97.55
2101.00,97.56
2098.00,97.59
2095.00,97.63
2092.00,97.60
2089.00,97.50
2086.00,97.43
2083.00,97.41
2080.00,97.43
2077.00,97.44
2074.00,97.43
2071.00,97.41
2068.00,97.43
2065.00,97.46
2062.00,97.44
2059.00,97.38
2056.00,97.32
2053.00,97.27
2050.00,97.27
2047.00,97.27
2044.00,97.22
2041.00,97.12
2038.00,97.13
2035.00,97.26
2032.00,97.38
2029.00,97.43
2026.00,97.42
2023.00,97.38
2020.00,97.29
2017.00,97.21
2014.00,97.22
2011.00,97.26
2008.00,97.22
2005.00,97.15
2002.00,97.12
1999.00,97.14
1996.00,97.22
1993.00,97.28
1990.00,97.20
1987.00,97.00
1984.00,96.78
1981.00,96.69
1978.00,96.92
1975.00,97.24
1972.00,97.31
1969.00,97.26
1966.00,97.25
1963.00,97.32
1960.00,97.44
1957.00,97.50
1954.00,97.48
1951.00,97.45
1948.00,97.43
1945.00,97.40
1942.00,97.36
1939.00,97.35
1936.00,97.36
1933.00,97.38
1930.00,97.34
1927.00,97.24
1924.00,97.16
1921.00,97.16
1918.00,97.17
1915.00,97.15
1912.00,97.13
1909.00,97.12
1906.00,97.12
1903.00,97.09
1900.00,97.06
1897.00,97.04
1894.00,97.02
1891.00,96.99
1888.00,96.93
1885.00,96.89
1882.00,96.89
1879.00,96.89
1876.00,96.88
1873.00,96.87
1870.00,96.85
1867.00,96.81
1864.00,96.81
1861.00,96.86
1858.00,96.89
1855.00,96.93
1852.00,96.99
1849.00,97.01
1846.00,96.99
1843.00,96.97
1840.00,97.01
1837.00,97.07
1834.00,97.10
1831.00,97.11
1828.00,97.15
1825.00,97.18
1822.00,97.19
1819.00,97.21
1816.00,97.21
1813.00,97.20
1810.00,97.21
1807.00,97.23
1804.00,97.24
1801.00,97.23
1798.00,97.22
1795.00,97.23
1792.00,97.25
1789.00,97.25
1786.00,97.25
1783.00,97.26
1780.00,97.26
1777.00,97.26
1774.00,97.26
1771.00,97.24
1768.00,97.23
1765.00,97.22
1762.00,97.20
1759.00,97.19
1756.00,97.19
1753.00,97.18
1750.00,97.15
1747.00,97.13
1744.00,97.11
1741.00,97.09
1738.00,97.09
1735.00,97.09
1732.00,97.08
1729.00,97.05
1726.00,97.02
1723.00,97.00
1720.00,96.98
1717.00,96.98
1714.00,96.95
1711.00,96.91
1708.00,96.88
1705.00,96.86
1702.00,96.83
1699.00,96.81
1696.00,96.79
1693.00,96.78
1690.00,96.77
1687.00,96.74
1684.00,96.69
1681.00,96.65
1678.00,96.61
1675.00,96.59
1672.00,96.58
1669.00,96.55
1666.00,96.50
1663.00,96.47
1660.00,96.44
1657.00,96.40
1654.00,96.37
1651.00,96.34
1648.00,96.31
1645.00,96.26
1642.00,96.22
1639.00,96.17
1636.00,96.12
1633.00,96.09
1630.00,96.06
1627.00,96.01
1624.00,95.97
1621.00,95.96
1618.00,95.97
1615.00,95.98
1612.00,95.99
1609.00,96.01
1606.00,96.06
1603.00,96.09
1600.00,96.09
1597.00,96.09
1594.00,96.11
1591.00,96.13
1588.00,96.16
1585.00,96.19
1582.00,96.20
1579.00,96.19
1576.00,96.19
1573.00,96.20
1570.00,96.22
1567.00,96.24
1564.00,96.25
1561.00,96.25
1558.00,96.24
1555.00,96.25
1552.00,96.26
1549.00,96.25
1546.00,96.25
1543.00,96.26
1540.00,96.29
1537.00,96.30
1534.00,96.30
1531.00,96.29
1528.00,96.29
1525.00,96.30
1522.00,96.31
1519.00,96.32
1516.00,96.32
1513.00,96.31
1510.00,96.30
1507.00,96.30
1504.00,96.29
1501.00,96.28
1498.00,96.28
1495.00,96.30
1492.00,96.31
1489.00,96.30
1486.00,96.29
1483.00,96.28
1480.00,96.29
1477.00,96.29
1474.00,96.30
1471.00,96.30
1468.00,96.31
1465.00,96.31
1462.00,96.30
1459.00,96.28
1456.00,96.27
1453.00,96.27
1450.00,96.27
1447.00,96.27
1444.00,96.26
1441.00,96.27
1438.00,96.28
1435.00,96.28
1432.00,96.26
1429.00,96.24
1426.00,96.24
1423.00,96.24
1420.00,96.23
1417.00,96.21
1414.00,96.21
1411.00,96.23
1408.00,96.23
1405.00,96.22
1402.00,96.21
1399.00,96.20
1396.00,96.20
1393.00,96.19
1390.00,96.16
1387.00,96.14
1384.00,96.13
1381.00,96.12
1378.00,96.11
1375.00,96.10
1372.00,96.09
1369.00,96.07
1366.00,96.06
1363.00,96.05
1360.00,96.04
1357.00,96.03
1354.00,96.01
1351.00,95.99
1348.00,95.96
1345.00,95.94
1342.00,95.91
1339.00,95.88
1336.00,95.86
1333.00,95.85
1330.00,95.83
1327.00,95.78
1324.00,95.72
1321.00,95.67
1318.00,95.61
1315.00,95.53
1312.00,95.47
1309.00,95.39
1306.00,95.30
1303.00,95.19
1300.00,95.07
1297.00,94.93
1294.00,94.78
1291.00,94.60
1288.00,94.41
1285.00,94.17
1282.00,93.90
1279.00,93.57
1276.00,93.19
1273.00,92.73
1270.00,92.18
1267.00,91.51
1264.00,90.73
1261.00,89.85
1258.00,88.90
1255.00,87.90
1252.00,86.85
1249.00,85.79
1246.00,84.74
1243.00,83.68
1240.00,82.61
1237.00,81.54
1234.00,80.49
1231.00,79.44
1228.00,78.39
1225.00,77.36
1222.00,76.37
1219.00,75.42
1216.00,74.51
1213.00,73.62
1210.00,72.76
1207.00,71.95
1204.00,71.18
1201.00,70.44
1198.00,69.73
1195.00,69.05
1192.00,68.38
1189.00,67.72
1186.00,67.08
1183.00,66.43
1180.00,65.79
1177.00,65.16
1174.00,64.54
1171.00,63.89
1168.00,63.24
1165.00,62.59
1162.00,61.94
1159.00,61.25
1156.00,60.53
1153.00,59.73
1150.00,58.88
1147.00,57.96
1144.00,56.92
1141.00,55.71
1138.00,54.31
1135.00,52.68
1132.00,50.78
1129.00,48.59
1126.00,46.09
1123.00,43.33
1120.00,40.40
1117.00,37.41
1114.00,34.52
1111.00,31.84
1108.00,29.46
1105.00,27.38
1102.00,25.57
1099.00,23.99
1096.00,22.61
1093.00,21.40
1090.00,20.32
1087.00,19.33
1084.00,18.42
1081.00,17.58
1078.00,16.81
1075.00,16.12
1072.00,15.50
1069.00,14.92
1066.00,14.36
1063.00,13.86
1060.00,13.39
1057.00,12.96
1054.00,12.55
1051.00,12.18
1048.00,11.86
1045.00,11.61
1042.00,11.43
1039.00,11.29
1036.00,11.22
1033.00,11.27
1030.00,11.44
1027.00,11.77
1024.00,12.29
1021.00,13.02
1018.00,14.02
1015.00,15.35
1012.00,17.04
1009.00,19.10
1006.00,21.54
1003.00,24.33
1000.00,27.42
997.00,30.71
994.00,34.12
991.00,37.52
988.00,40.78
985.00,43.85
982.00,46.71
979.00,49.39
976.00,51.91
973.00,54.34
970.00,56.68
967.00,58.90
964.00,60.97
961.00,62.89
958.00,64.68
955.00,66.37
952.00,67.96
949.00,69.46
946.00,70.88
943.00,72.20
940.00,73.42
937.00,74.57
934.00,75.67
931.00,76.68
928.00,77.60
925.00,78.46
922.00,79.27
919.00,80.04
916.00,80.72
913.00,81.33
910.00,81.93
907.00,82.48
904.00,82.97
901.00,83.42
898.00,83.83
895.00,84.23
892.00,84.59
889.00,84.90
886.00,85.14
883.00,85.30
880.00,85.41
877.00,85.48
874.00,85.45
871.00,85.23
868.00,84.81
865.00,84.14
862.00,83.22
859.00,82.09
856.00,80.75
853.00,79.24
850.00,77.64
847.00,75.98
844.00,74.29
841.00,72.59
838.00,70.93
835.00,69.32
832.00,67.75
829.00,66.18
826.00,64.59
823.00,63.04
820.00,61.62
817.00,60.33
814.00,59.17
811.00,58.18
808.00,57.37
805.00,56.71
802.00,56.27
799.00,56.07
796.00,56.14
793.00,56.49
790.00,57.20
787.00,58.29
784.00,59.79
781.00,61.72
778.00,64.12
775.00,66.91
772.00,69.76
769.00,72.28
766.00,74.25
763.00,75.62
760.00,76.52
757.00,77.13
754.00,77.57
751.00,77.92
748.00,78.28
745.00,78.64
742.00,78.99
739.00,79.31
736.00,79.61
733.00,79.89
730.00,80.15
727.00,80.39
724.00,80.62
721.00,80.83
718.00,81.03
715.00,81.21
712.00,81.37
709.00,81.52
706.00,81.63
703.00,81.73
700.00,81.84
697.00,81.92
694.00,81.97
691.00,82.00
688.00,82.04
685.00,82.08
682.00,82.08
679.00,82.08
676.00,82.08
673.00,82.07
670.00,82.02
667.00,81.95
664.00,81.88
661.00,81.82
658.00,81.75
655.00,81.65
652.00,81.52
649.00,81.40
646.00,81.31
643.00,81.20
640.00,81.07
637.00,80.90
634.00,80.65
631.00,80.37
628.00,80.12
625.00,79.88
622.00,79.63
619.00,79.37
616.00,79.02
613.00,78.66
610.00,78.33
607.00,77.99
604.00,77.78
601.00,77.62
598.00,77.24
595.00,76.74
592.00,76.54
589.00,76.66
586.00,76.56
583.00,75.97
580.00,75.25
577.00,74.86
574.00,74.85
571.00,75.00
568.00,75.01
565.00,74.67
562.00,74.10
559.00,73.68
556.00,73.52
553.00,73.40
550.00,73.08